timestamp,ax,ay,az
0.54,0.000,0.000,9.342
0.55,0.000,0.000,9.679
0.56,0.000,0.000,10.018
0.57,0.000,0.000,10.355
0.58,0.000,0.000,10.684
0.59,0.000,0.000,11.002
0.60,0.000,0.000,11.304
0.61,0.000,0.000,11.588
0.62,0.000,0.000,11.848
0.63,0.000,0.000,12.082
0.64,0.000,0.000,12.288
0.65,0.000,0.000,12.461
0.66,0.000,0.000,12.600
0.67,0.000,0.000,12.704
0.68,0.000,0.000,12.770
0.69,0.000,0.000,12.799
0.70,0.000,0.000,12.789
0.71,0.000,0.000,12.741
0.72,0.000,0.000,12.655
0.73,0.000,0.000,12.533
0.74,0.000,0.000,12.376
0.75,0.000,0.000,12.187
0.76,0.000,0.000,11.966
0.77,0.000,0.000,11.718
0.78,0.000,0.000,11.445
0.79,0.000,0.000,11.152
0.80,0.000,0.000,10.841
0.81,0.000,0.000,10.517
0.82,0.000,0.000,10.183
0.83,0.000,0.000,9.845
0.84,0.000,0.000,9.506
0.85,0.000,0.000,9.171
0.86,0.000,0.000,8.844
0.87,0.000,0.000,8.529
0.88,0.000,0.000,8.231
0.89,0.000,0.000,7.952
0.90,0.000,0.000,7.697
0.91,0.000,0.000,7.469
0.92,0.000,0.000,7.271
0.93,0.000,0.000,7.105
0.94,0.000,0.000,6.974
0.95,0.000,0.000,6.878
0.96,0.000,0.000,6.820
0.97,0.000,0.000,6.800
0.98,0.000,0.000,6.818
0.99,0.000,0.000,6.875
1.00,0.000,0.000,6.969
1.01,0.000,0.000,7.098
1.02,0.000,0.000,7.263
1.03,0.000,0.000,7.460
1.04,0.000,0.000,7.687
1.05,0.000,0.000,7.940
1.06,0.000,0.000,8.218
1.07,0.000,0.000,8.516
1.08,0.000,0.000,8.830
1.09,0.000,0.000,9.157
1.10,0.000,0.000,9.491
1.11,0.000,0.000,9.830
1.12,0.000,0.000,10.169
1.13,0.000,0.000,10.502
1.14,0.000,0.000,10.827
1.15,0.000,0.000,11.138
1.16,0.000,0.000,11.433
1.17,0.000,0.000,11.706
1.18,0.000,0.000,11.956
1.19,0.000,0.000,12.177
1.20,0.000,0.000,12.369
1.21,0.000,0.000,12.527
1.22,0.000,0.000,12.651
1.23,0.000,0.000,12.738
1.24,0.000,0.000,12.788
1.25,0.000,0.000,12.799
1.26,0.000,0.000,12.772
1.27,0.000,0.000,12.708
1.28,0.000,0.000,12.606
1.29,0.000,0.000,12.468
1.30,0.000,0.000,12.296
1.31,0.000,0.000,12.092
1.32,0.000,0.000,11.859
1.33,0.000,0.000,11.600
1.34,0.000,0.000,11.317
1.35,0.000,0.000,11.016
1.36,0.000,0.000,10.698
1.37,0.000,0.000,10.370
1.38,0.000,0.000,10.033
1.39,0.000,0.000,9.694
1.40,0.000,0.000,9.357
1.41,0.000,0.000,9.025
1.42,0.000,0.000,8.703
1.43,0.000,0.000,8.395
1.44,0.000,0.000,8.104
1.45,0.000,0.000,7.836
1.46,0.000,0.000,7.593
1.47,0.000,0.000,7.377
1.48,0.000,0.000,7.193
1.49,0.000,0.000,7.042
1.50,0.000,0.000,6.927
1.51,0.000,0.000,6.848
1.52,0.000,0.000,6.806
1.53,0.000,0.000,6.803
1.54,0.000,0.000,6.839
1.55,0.000,0.000,6.912
1.56,0.000,0.000,7.022
1.57,0.000,0.000,7.167
1.58,0.000,0.000,7.347
1.59,0.000,0.000,7.557
1.60,0.000,0.000,7.796
1.61,0.000,0.000,8.061
1.62,0.000,0.000,8.348
1.63,0.000,0.000,8.654
1.64,0.000,0.000,8.974
1.65,0.000,0.000,9.305
1.66,0.000,0.000,9.642
1.67,0.000,0.000,9.981
1.68,0.000,0.000,10.318
1.69,0.000,0.000,10.648
1.70,0.000,0.000,10.967
1.71,0.000,0.000,11.272
1.72,0.000,0.000,11.557
1.73,0.000,0.000,11.820
1.74,0.000,0.000,12.058
1.75,0.000,0.000,12.266
1.76,0.000,0.000,12.443
1.77,0.000,0.000,12.587
1.78,0.000,0.000,12.694
1.79,0.000,0.000,12.765
1.80,0.000,0.000,12.798
1.81,0.000,0.000,12.792
1.82,0.000,0.000,12.748
1.83,0.000,0.000,12.667
1.84,0.000,0.000,12.549
1.85,0.000,0.000,12.396
1.86,0.000,0.000,12.209
1.87,0.000,0.000,11.992
1.88,0.000,0.000,11.747
1.89,0.000,0.000,11.477
1.90,0.000,0.000,11.185
1.91,0.000,0.000,10.876
1.92,0.000,0.000,10.553
1.93,0.000,0.000,10.221
1.94,0.000,0.000,9.883
1.95,0.000,0.000,9.544
1.96,0.000,0.000,9.208
1.97,0.000,0.000,8.880
1.98,0.000,0.000,8.564
1.99,0.000,0.000,8.263
2.00,0.000,0.000,7.982
2.01,0.000,0.000,7.724
2.02,0.000,0.000,7.493
2.03,0.000,0.000,7.292
2.04,0.000,0.000,7.122
2.05,0.000,0.000,6.986
2.06,0.000,0.000,6.887
2.07,0.000,0.000,6.825
2.08,0.000,0.000,6.800
2.09,0.000,0.000,6.814
2.10,0.000,0.000,6.867
2.11,0.000,0.000,6.956
2.12,0.000,0.000,7.082
2.13,0.000,0.000,7.243
2.14,0.000,0.000,7.436
2.15,0.000,0.000,7.660
2.16,0.000,0.000,7.911
2.17,0.000,0.000,8.186
2.18,0.000,0.000,8.482
2.19,0.000,0.000,8.794
2.20,0.000,0.000,9.120
2.21,0.000,0.000,9.454
2.22,0.000,0.000,9.792
2.23,0.000,0.000,10.131
2.24,0.000,0.000,10.465
2.25,0.000,0.000,10.791
2.26,0.000,0.000,11.105
2.27,0.000,0.000,11.401
2.28,0.000,0.000,11.677
2.29,0.000,0.000,11.929
2.30,0.000,0.000,12.154
2.31,0.000,0.000,12.349
2.32,0.000,0.000,12.511
2.33,0.000,0.000,12.639
2.34,0.000,0.000,12.730
2.35,0.000,0.000,12.784
2.36,0.000,0.000,12.800
2.37,0.000,0.000,12.777
2.38,0.000,0.000,12.717
2.39,0.000,0.000,12.619
2.40,0.000,0.000,12.485
2.41,0.000,0.000,12.317
2.42,0.000,0.000,12.116
2.43,0.000,0.000,11.886
2.44,0.000,0.000,11.630
2.45,0.000,0.000,11.350
2.46,0.000,0.000,11.050
2.47,0.000,0.000,10.734
2.48,0.000,0.000,10.407
2.49,0.000,0.000,10.071
2.50,0.000,0.000,9.732
2.51,0.000,0.000,9.394
2.52,0.000,0.000,9.061
2.53,0.000,0.000,8.738
2.54,0.000,0.000,8.428
2.55,0.000,0.000,8.136
2.56,0.000,0.000,7.865
2.57,0.000,0.000,7.618
2.58,0.000,0.000,7.400
2.59,0.000,0.000,7.212
2.60,0.000,0.000,7.057
2.61,0.000,0.000,6.938
2.62,0.000,0.000,6.855
2.63,0.000,0.000,6.809
2.64,0.000,0.000,6.802
2.65,0.000,0.000,6.833
2.66,0.000,0.000,6.902
2.67,0.000,0.000,7.008
2.68,0.000,0.000,7.150
2.69,0.000,0.000,7.325
2.70,0.000,0.000,7.532
2.71,0.000,0.000,7.768
2.72,0.000,0.000,8.031
2.73,0.000,0.000,8.315
2.74,0.000,0.000,8.619
2.75,0.000,0.000,8.938
2.76,0.000,0.000,9.268
2.77,0.000,0.000,9.604
2.78,0.000,0.000,9.943
2.79,0.000,0.000,10.280
2.80,0.000,0.000,10.612
2.81,0.000,0.000,10.932
2.82,0.000,0.000,11.239
2.83,0.000,0.000,11.527
2.84,0.000,0.000,11.792
2.85,0.000,0.000,12.033
2.86,0.000,0.000,12.245
2.87,0.000,0.000,12.425
2.88,0.000,0.000,12.572
2.89,0.000,0.000,12.684
2.90,0.000,0.000,12.759
2.91,0.000,0.000,12.796
2.92,0.000,0.000,12.795
2.93,0.000,0.000,12.755
2.94,0.000,0.000,12.678
2.95,0.000,0.000,12.564
2.96,0.000,0.000,12.414
2.97,0.000,0.000,12.231
2.98,0.000,0.000,12.018
2.99,0.000,0.000,11.775
3.00,0.000,0.000,11.508
3.01,0.000,0.000,11.219
3.02,0.000,0.000,10.911
3.03,0.000,0.000,10.590
3.04,0.000,0.000,10.258
3.05,0.000,0.000,9.921
3.06,0.000,0.000,9.582
3.07,0.000,0.000,9.245
3.08,0.000,0.000,8.916
3.09,0.000,0.000,8.598
3.10,0.000,0.000,8.296
3.11,0.000,0.000,8.012
3.12,0.000,0.000,7.752
3.13,0.000,0.000,7.518
3.14,0.000,0.000,7.312
3.15,0.000,0.000,7.139
3.16,0.000,0.000,7.000
3.17,0.000,0.000,6.896
3.18,0.000,0.000,6.830
3.19,0.000,0.000,6.801
3.20,0.000,0.000,6.811
3.21,0.000,0.000,6.859
3.22,0.000,0.000,6.945
3.23,0.000,0.000,7.067
3.24,0.000,0.000,7.224
3.25,0.000,0.000,7.413
3.26,0.000,0.000,7.634
3.27,0.000,0.000,7.882
3.28,0.000,0.000,8.155
3.29,0.000,0.000,8.448
3.30,0.000,0.000,8.759
3.31,0.000,0.000,9.083
3.32,0.000,0.000,9.417
3.33,0.000,0.000,9.755
3.34,0.000,0.000,10.094
3.35,0.000,0.000,10.429
3.36,0.000,0.000,10.756
3.37,0.000,0.000,11.071
3.38,0.000,0.000,11.369
3.39,0.000,0.000,11.648
3.40,0.000,0.000,11.903
3.41,0.000,0.000,12.131
3.42,0.000,0.000,12.329
3.43,0.000,0.000,12.495
3.44,0.000,0.000,12.626
3.45,0.000,0.000,12.722
3.46,0.000,0.000,12.780
3.47,0.000,0.000,12.800
3.48,0.000,0.000,12.782
3.49,0.000,0.000,12.725
3.50,0.000,0.000,12.631
3.51,0.000,0.000,12.502
3.52,0.000,0.000,12.337
3.53,0.000,0.000,12.140
3.54,0.000,0.000,11.913
3.55,0.000,0.000,11.660
3.56,0.000,0.000,11.382
3.57,0.000,0.000,11.084
3.58,0.000,0.000,10.770
3.59,0.000,0.000,10.443
3.60,0.000,0.000,10.109
3.61,0.000,0.000,9.770
3.62,0.000,0.000,9.431
3.63,0.000,0.000,9.098
3.64,0.000,0.000,8.773
3.65,0.000,0.000,8.462
3.66,0.000,0.000,8.167
3.67,0.000,0.000,7.894
3.68,0.000,0.000,7.644
3.69,0.000,0.000,7.423
3.70,0.000,0.000,7.231
3.71,0.000,0.000,7.073
3.72,0.000,0.000,6.949
3.73,0.000,0.000,6.862
3.74,0.000,0.000,6.812
3.75,0.000,0.000,6.801
3.76,0.000,0.000,6.828
3.77,0.000,0.000,6.892
3.78,0.000,0.000,6.994
3.79,0.000,0.000,7.132
3.80,0.000,0.000,7.304
3.81,0.000,0.000,7.508
3.82,0.000,0.000,7.741
3.83,0.000,0.000,8.000
3.84,0.000,0.000,8.283
3.85,0.000,0.000,8.584
3.86,0.000,0.000,8.902
3.87,0.000,0.000,9.230
3.88,0.000,0.000,9.567
3.89,0.000,0.000,9.906
3.90,0.000,0.000,10.243
3.91,0.000,0.000,10.575
3.92,0.000,0.000,10.897
3.93,0.000,0.000,11.205
3.94,0.000,0.000,11.496
3.95,0.000,0.000,11.764
3.96,0.000,0.000,12.007
3.97,0.000,0.000,12.223
3.98,0.000,0.000,12.407
3.99,0.000,0.000,12.558
4.00,0.000,0.000,12.673
4.01,0.000,0.000,12.752
4.02,0.000,0.000,12.794
4.03,0.000,0.000,12.797
4.04,0.000,0.000,12.761
4.05,0.000,0.000,12.688
4.06,0.000,0.000,12.578
4.07,0.000,0.000,12.433
4.08,0.000,0.000,12.253
4.09,0.000,0.000,12.043
4.10,0.000,0.000,11.804
4.11,0.000,0.000,11.539
4.12,0.000,0.000,11.252
4.13,0.000,0.000,10.946
4.14,0.000,0.000,10.626
4.15,0.000,0.000,10.295
4.16,0.000,0.000,9.958
4.17,0.000,0.000,9.619
4.18,0.000,0.000,9.282
4.19,0.000,0.000,8.952
4.20,0.000,0.000,8.633
4.21,0.000,0.000,8.328
4.22,0.000,0.000,8.043
4.23,0.000,0.000,7.780
4.24,0.000,0.000,7.542
4.25,0.000,0.000,7.334
4.26,0.000,0.000,7.157
4.27,0.000,0.000,7.013
4.28,0.000,0.000,6.906
4.29,0.000,0.000,6.835
4.30,0.000,0.000,6.802
4.31,0.000,0.000,6.808
4.32,0.000,0.000,6.852
4.33,0.000,0.000,6.933
4.34,0.000,0.000,7.051
4.35,0.000,0.000,7.204
4.36,0.000,0.000,7.391
4.37,0.000,0.000,7.608
4.38,0.000,0.000,7.853
4.39,0.000,0.000,8.123
4.40,0.000,0.000,8.415
4.41,0.000,0.000,8.724
4.42,0.000,0.000,9.047
4.43,0.000,0.000,9.379
4.44,0.000,0.000,9.717
4.45,0.000,0.000,10.056
4.46,0.000,0.000,10.392
4.47,0.000,0.000,10.720
4.48,0.000,0.000,11.036
4.49,0.000,0.000,11.337
4.50,0.000,0.000,11.618
4.51,0.000,0.000,11.876
4.52,0.000,0.000,12.107
4.53,0.000,0.000,12.308
4.54,0.000,0.000,12.478
4.55,0.000,0.000,12.614
4.56,0.000,0.000,12.713
4.57,0.000,0.000,12.775
4.58,0.000,0.000,12.800
4.59,0.000,0.000,12.786
4.60,0.000,0.000,12.733
4.61,0.000,0.000,12.644
4.62,0.000,0.000,12.518
4.63,0.000,0.000,12.357
4.64,0.000,0.000,12.164
4.65,0.000,0.000,11.940
4.66,0.000,0.000,11.689
4.67,0.000,0.000,11.414
4.68,0.000,0.000,11.118
4.69,0.000,0.000,10.806
4.70,0.000,0.000,10.480
4.71,0.000,0.000,10.146
4.72,0.000,0.000,9.808
4.73,0.000,0.000,9.469
4.74,0.000,0.000,9.135
4.75,0.000,0.000,8.809
4.76,0.000,0.000,8.495
4.77,0.000,0.000,8.199
4.78,0.000,0.000,7.923
4.79,0.000,0.000,7.671
4.80,0.000,0.000,7.446
4.81,0.000,0.000,7.251
4.82,0.000,0.000,7.089
4.83,0.000,0.000,6.961
4.84,0.000,0.000,6.870
4.85,0.000,0.000,6.816
4.86,0.000,0.000,6.800
4.87,0.000,0.000,6.823
4.88,0.000,0.000,6.883
4.89,0.000,0.000,6.981
4.90,0.000,0.000,7.115
4.91,0.000,0.000,7.283
4.92,0.000,0.000,7.484
4.93,0.000,0.000,7.714
4.94,0.000,0.000,7.970
4.95,0.000,0.000,8.250
4.96,0.000,0.000,8.550
4.97,0.000,0.000,8.866
4.98,0.000,0.000,9.193
4.99,0.000,0.000,9.529
5.00,0.000,0.000,9.868
5.01,0.000,0.000,10.206
5.02,0.000,0.000,10.539
5.03,0.000,0.000,10.862
5.04,0.000,0.000,11.172
5.05,0.000,0.000,11.464
5.06,0.000,0.000,11.735
5.07,0.000,0.000,11.982
5.08,0.000,0.000,12.200
5.09,0.000,0.000,12.388
5.10,0.000,0.000,12.543
5.11,0.000,0.000,12.662
5.12,0.000,0.000,12.745
5.13,0.000,0.000,12.791
5.14,0.000,0.000,12.798
5.15,0.000,0.000,12.767
5.16,0.000,0.000,12.698
5.17,0.000,0.000,12.592
5.18,0.000,0.000,12.450
5.19,0.000,0.000,12.275
5.20,0.000,0.000,12.068
5.21,0.000,0.000,11.832
5.22,0.000,0.000,11.569
5.23,0.000,0.000,11.285
5.24,0.000,0.000,10.981
5.25,0.000,0.000,10.662
5.26,0.000,0.000,10.332
5.27,0.000,0.000,9.996
5.28,0.000,0.000,9.657
5.29,0.000,0.000,9.320
5.30,0.000,0.000,8.988
5.31,0.000,0.000,8.668
5.32,0.000,0.000,8.361
5.33,0.000,0.000,8.073
5.34,0.000,0.000,7.808
5.35,0.000,0.000,7.567
5.36,0.000,0.000,7.355
5.37,0.000,0.000,7.175
5.38,0.000,0.000,7.028
5.39,0.000,0.000,6.916
5.40,0.000,0.000,6.841
5.41,0.000,0.000,6.804
5.42,0.000,0.000,6.805
5.43,0.000,0.000,6.845
5.44,0.000,0.000,6.922
5.45,0.000,0.000,7.036
5.46,0.000,0.000,7.186
5.47,0.000,0.000,7.369
5.48,0.000,0.000,7.582
5.49,0.000,0.000,7.825
5.50,0.000,0.000,8.092
5.51,0.000,0.000,8.381
5.52,0.000,0.000,8.689
5.53,0.000,0.000,9.010
5.54,0.000,0.000,9.342
5.55,0.000,0.000,9.679
5.56,0.000,0.000,10.018
5.57,0.000,0.000,10.355
5.58,0.000,0.000,10.684
5.59,0.000,0.000,11.002
5.60,0.000,0.000,11.304
5.61,0.000,0.000,11.588
5.62,0.000,0.000,11.848
5.63,0.000,0.000,12.082
5.64,0.000,0.000,12.288
5.65,0.000,0.000,12.461
5.66,0.000,0.000,12.600
5.67,0.000,0.000,12.704
5.68,0.000,0.000,12.770
5.69,0.000,0.000,12.799
5.70,0.000,0.000,12.789
5.71,0.000,0.000,12.741
5.72,0.000,0.000,12.655
5.73,0.000,0.000,12.533
5.74,0.000,0.000,12.376
5.75,0.000,0.000,12.187
5.76,0.000,0.000,11.966
5.77,0.000,0.000,11.718
5.78,0.000,0.000,11.445
5.79,0.000,0.000,11.152
5.80,0.000,0.000,10.841
5.81,0.000,0.000,10.517
5.82,0.000,0.000,10.183
5.83,0.000,0.000,9.845
5.84,0.000,0.000,9.506
5.85,0.000,0.000,9.171
5.86,0.000,0.000,8.844
5.87,0.000,0.000,8.529
5.88,0.000,0.000,8.231
5.89,0.000,0.000,7.952
5.90,0.000,0.000,7.697
5.91,0.000,0.000,7.469
5.92,0.000,0.000,7.271
5.93,0.000,0.000,7.105
5.94,0.000,0.000,6.974
5.95,0.000,0.000,6.878
5.96,0.000,0.000,6.820
5.97,0.000,0.000,6.800
5.98,0.000,0.000,6.818
5.99,0.000,0.000,6.875
6.00,0.000,0.000,6.969
6.01,0.000,0.000,7.098
6.02,0.000,0.000,7.263
6.03,0.000,0.000,7.460
6.04,0.000,0.000,7.687
6.05,0.000,0.000,7.940
6.06,0.000,0.000,8.218
6.07,0.000,0.000,8.516
6.08,0.000,0.000,8.830
6.09,0.000,0.000,9.157
6.10,0.000,0.000,9.491
6.11,0.000,0.000,9.830
6.12,0.000,0.000,10.169
6.13,0.000,0.000,10.502
6.14,0.000,0.000,10.827
6.15,0.000,0.000,11.138
6.16,0.000,0.000,11.433
6.17,0.000,0.000,11.706
6.18,0.000,0.000,11.956
6.19,0.000,0.000,12.177
6.20,0.000,0.000,12.369
6.21,0.000,0.000,12.527
6.22,0.000,0.000,12.651
6.23,0.000,0.000,12.738
6.24,0.000,0.000,12.788
6.25,0.000,0.000,12.799
6.26,0.000,0.000,12.772
6.27,0.000,0.000,12.708
6.28,0.000,0.000,12.606
6.29,0.000,0.000,12.468
6.30,0.000,0.000,12.296
6.31,0.000,0.000,12.092
6.32,0.000,0.000,11.859
6.33,0.000,0.000,11.600
6.34,0.000,0.000,11.317
6.35,0.000,0.000,11.016
6.36,0.000,0.000,10.698
6.37,0.000,0.000,10.370
6.38,0.000,0.000,10.033
6.39,0.000,0.000,9.694
6.40,0.000,0.000,9.357
6.41,0.000,0.000,9.025
6.42,0.000,0.000,8.703
6.43,0.000,0.000,8.395
6.44,0.000,0.000,8.104
6.45,0.000,0.000,7.836
6.46,0.000,0.000,7.593
6.47,0.000,0.000,7.377
6.48,0.000,0.000,7.193
6.49,0.000,0.000,7.042
6.50,0.000,0.000,6.927
6.51,0.000,0.000,6.848
6.52,0.000,0.000,6.806
6.53,0.000,0.000,6.803
6.54,0.000,0.000,6.839
6.55,0.000,0.000,6.912
6.56,0.000,0.000,7.022
6.57,0.000,0.000,7.167
6.58,0.000,0.000,7.347
6.59,0.000,0.000,7.557
6.60,0.000,0.000,7.796
6.61,0.000,0.000,8.061
6.62,0.000,0.000,8.348
6.63,0.000,0.000,8.654
6.64,0.000,0.000,8.974
6.65,0.000,0.000,9.305
6.66,0.000,0.000,9.642
6.67,0.000,0.000,9.981
6.68,0.000,0.000,10.318
6.69,0.000,0.000,10.648
6.70,0.000,0.000,10.967
6.71,0.000,0.000,11.272
6.72,0.000,0.000,11.557
6.73,0.000,0.000,11.820
6.74,0.000,0.000,12.058
6.75,0.000,0.000,12.266
6.76,0.000,0.000,12.443
6.77,0.000,0.000,12.587
6.78,0.000,0.000,12.694
6.79,0.000,0.000,12.765
6.80,0.000,0.000,12.798
6.81,0.000,0.000,12.792
6.82,0.000,0.000,12.748
6.83,0.000,0.000,12.667
6.84,0.000,0.000,12.549
6.85,0.000,0.000,12.396
6.86,0.000,0.000,12.209
6.87,0.000,0.000,11.992
6.88,0.000,0.000,11.747
6.89,0.000,0.000,11.477
6.90,0.000,0.000,11.185
6.91,0.000,0.000,10.876
6.92,0.000,0.000,10.553
6.93,0.000,0.000,10.221
6.94,0.000,0.000,9.883
6.95,0.000,0.000,9.544
6.96,0.000,0.000,9.208
6.97,0.000,0.000,8.880
6.98,0.000,0.000,8.564
6.99,0.000,0.000,8.263
7.00,0.000,0.000,7.982
7.01,0.000,0.000,7.724
7.02,0.000,0.000,7.493
7.03,0.000,0.000,7.292
7.04,0.000,0.000,7.122
7.05,0.000,0.000,6.986
7.06,0.000,0.000,6.887
7.07,0.000,0.000,6.825
7.08,0.000,0.000,6.800
7.09,0.000,0.000,6.814
7.10,0.000,0.000,6.867
7.11,0.000,0.000,6.956
7.12,0.000,0.000,7.082
7.13,0.000,0.000,7.243
7.14,0.000,0.000,7.436
7.15,0.000,0.000,7.660
7.16,0.000,0.000,7.911
7.17,0.000,0.000,8.186
7.18,0.000,0.000,8.482
7.19,0.000,0.000,8.794
7.20,0.000,0.000,9.120
7.21,0.000,0.000,9.454
7.22,0.000,0.000,9.792
7.23,0.000,0.000,10.131
7.24,0.000,0.000,10.465
7.25,0.000,0.000,10.791
7.26,0.000,0.000,11.105
7.27,0.000,0.000,11.401
7.28,0.000,0.000,11.677
7.29,0.000,0.000,11.929
7.30,0.000,0.000,12.154
7.31,0.000,0.000,12.349
7.32,0.000,0.000,12.511
7.33,0.000,0.000,12.639
7.34,0.000,0.000,12.730
7.35,0.000,0.000,12.784
7.36,0.000,0.000,12.800
7.37,0.000,0.000,12.777
7.38,0.000,0.000,12.717
7.39,0.000,0.000,12.619
7.40,0.000,0.000,12.485
7.41,0.000,0.000,12.317
7.42,0.000,0.000,12.116
7.43,0.000,0.000,11.886
7.44,0.000,0.000,11.630
7.45,0.000,0.000,11.350
7.46,0.000,0.000,11.050
7.47,0.000,0.000,10.734
7.48,0.000,0.000,10.407
7.49,0.000,0.000,10.071
7.50,0.000,0.000,9.732
7.51,0.000,0.000,9.394
7.52,0.000,0.000,9.061
7.53,0.000,0.000,8.738
7.54,0.000,0.000,8.428
7.55,0.000,0.000,8.136
7.56,0.000,0.000,7.865
7.57,0.000,0.000,7.618
7.58,0.000,0.000,7.400
7.59,0.000,0.000,7.212
7.60,0.000,0.000,7.057
7.61,0.000,0.000,6.938
7.62,0.000,0.000,6.855
7.63,0.000,0.000,6.809
7.64,0.000,0.000,6.802
7.65,0.000,0.000,6.833
7.66,0.000,0.000,6.902
7.67,0.000,0.000,7.008
7.68,0.000,0.000,7.150
7.69,0.000,0.000,7.325
7.70,0.000,0.000,7.532
7.71,0.000,0.000,7.768
7.72,0.000,0.000,8.031
7.73,0.000,0.000,8.315
7.74,0.000,0.000,8.619
7.75,0.000,0.000,8.938
7.76,0.000,0.000,9.268
7.77,0.000,0.000,9.604
7.78,0.000,0.000,9.943
7.79,0.000,0.000,10.280
7.80,0.000,0.000,10.612
7.81,0.000,0.000,10.932
7.82,0.000,0.000,11.239
7.83,0.000,0.000,11.527
7.84,0.000,0.000,11.792
7.85,0.000,0.000,12.033
7.86,0.000,0.000,12.245
7.87,0.000,0.000,12.425
7.88,0.000,0.000,12.572
7.89,0.000,0.000,12.684
7.90,0.000,0.000,12.759
7.91,0.000,0.000,12.796
7.92,0.000,0.000,12.795
7.93,0.000,0.000,12.755
7.94,0.000,0.000,12.678
7.95,0.000,0.000,12.564
7.96,0.000,0.000,12.414
7.97,0.000,0.000,12.231
7.98,0.000,0.000,12.018
7.99,0.000,0.000,11.775
8.00,0.000,0.000,11.508
8.01,0.000,0.000,11.219
8.02,0.000,0.000,10.911
8.03,0.000,0.000,10.590
8.04,0.000,0.000,10.258
8.05,0.000,0.000,9.921
8.06,0.000,0.000,9.582
8.07,0.000,0.000,9.245
8.08,0.000,0.000,8.916
8.09,0.000,0.000,8.598
8.10,0.000,0.000,8.296
8.11,0.000,0.000,8.012
8.12,0.000,0.000,7.752
8.13,0.000,0.000,7.518
8.14,0.000,0.000,7.312
8.15,0.000,0.000,7.139
8.16,0.000,0.000,7.000
8.17,0.000,0.000,6.896
8.18,0.000,0.000,6.830
8.19,0.000,0.000,6.801
8.20,0.000,0.000,6.811
8.21,0.000,0.000,6.859
8.22,0.000,0.000,6.945
8.23,0.000,0.000,7.067
8.24,0.000,0.000,7.224
8.25,0.000,0.000,7.413
8.26,0.000,0.000,7.634
8.27,0.000,0.000,7.882
8.28,0.000,0.000,8.154
8.29,0.000,0.000,8.448
8.30,0.000,0.000,8.759
8.31,0.000,0.000,9.083
8.32,0.000,0.000,9.417
8.33,0.000,0.000,9.755
8.34,0.000,0.000,10.094
8.35,0.000,0.000,10.429
8.36,0.000,0.000,10.756
8.37,0.000,0.000,11.071
8.38,0.000,0.000,11.369
8.39,0.000,0.000,11.648
8.40,0.000,0.000,11.903
8.41,0.000,0.000,12.131
8.42,0.000,0.000,12.329
8.43,0.000,0.000,12.495
8.44,0.000,0.000,12.626
8.45,0.000,0.000,12.722
8.46,0.000,0.000,12.780
8.47,0.000,0.000,12.800
8.48,0.000,0.000,12.782
8.49,0.000,0.000,12.725
8.50,0.000,0.000,12.631
8.51,0.000,0.000,12.502
8.52,0.000,0.000,12.337
8.53,0.000,0.000,12.140
8.54,0.000,0.000,11.913
8.55,0.000,0.000,11.660
8.56,0.000,0.000,11.382
8.57,0.000,0.000,11.084
8.58,0.000,0.000,10.770
8.59,0.000,0.000,10.443
8.60,0.000,0.000,10.109
8.61,0.000,0.000,9.770
8.62,0.000,0.000,9.431
8.63,0.000,0.000,9.098
8.64,0.000,0.000,8.773
8.65,0.000,0.000,8.462
8.66,0.000,0.000,8.167
8.67,0.000,0.000,7.894
8.68,0.000,0.000,7.644
8.69,0.000,0.000,7.423
8.70,0.000,0.000,7.231
8.71,0.000,0.000,7.073
8.72,0.000,0.000,6.949
8.73,0.000,0.000,6.862
8.74,0.000,0.000,6.812
8.75,0.000,0.000,6.801
8.76,0.000,0.000,6.828
8.77,0.000,0.000,6.892
8.78,0.000,0.000,6.994
8.79,0.000,0.000,7.132
8.80,0.000,0.000,7.304
8.81,0.000,0.000,7.508
8.82,0.000,0.000,7.741
8.83,0.000,0.000,8.000
8.84,0.000,0.000,8.283
8.85,0.000,0.000,8.584
8.86,0.000,0.000,8.902
8.87,0.000,0.000,9.230
8.88,0.000,0.000,9.567
8.89,0.000,0.000,9.906
8.90,0.000,0.000,10.243
8.91,0.000,0.000,10.575
8.92,0.000,0.000,10.897
8.93,0.000,0.000,11.205
8.94,0.000,0.000,11.496
8.95,0.000,0.000,11.764
8.96,0.000,0.000,12.007
8.97,0.000,0.000,12.223
8.98,0.000,0.000,12.407
8.99,0.000,0.000,12.558
9.00,0.000,0.000,12.673
9.01,0.000,0.000,12.752
9.02,0.000,0.000,12.794
9.03,0.000,0.000,12.797
9.04,0.000,0.000,12.761
9.05,0.000,0.000,12.688
9.06,0.000,0.000,12.578
9.07,0.000,0.000,12.433
9.08,0.000,0.000,12.253
9.09,0.000,0.000,12.043
9.10,0.000,0.000,11.804
9.11,0.000,0.000,11.539
9.12,0.000,0.000,11.252
9.13,0.000,0.000,10.946
9.14,0.000,0.000,10.626
9.15,0.000,0.000,10.295
9.16,0.000,0.000,9.958
9.17,0.000,0.000,9.619
9.18,0.000,0.000,9.282
9.19,0.000,0.000,8.952
9.20,0.000,0.000,8.633
9.21,0.000,0.000,8.328
9.22,0.000,0.000,8.043
9.23,0.000,0.000,7.780
9.24,0.000,0.000,7.542
9.25,0.000,0.000,7.334
9.26,0.000,0.000,7.157
9.27,0.000,0.000,7.013
9.28,0.000,0.000,6.906
9.29,0.000,0.000,6.835
9.30,0.000,0.000,6.802
9.31,0.000,0.000,6.808
9.32,0.000,0.000,6.852
9.33,0.000,0.000,6.933
9.34,0.000,0.000,7.051
9.35,0.000,0.000,7.204
9.36,0.000,0.000,7.391
9.37,0.000,0.000,7.608
9.38,0.000,0.000,7.853
9.39,0.000,0.000,8.123
9.40,0.000,0.000,8.415
9.41,0.000,0.000,8.724
9.42,0.000,0.000,9.047
9.43,0.000,0.000,9.379
9.44,0.000,0.000,9.717
9.45,0.000,0.000,10.056
9.46,0.000,0.000,10.392
9.47,0.000,0.000,10.720
9.48,0.000,0.000,11.036
9.49,0.000,0.000,11.337
9.50,0.000,0.000,11.618
9.51,0.000,0.000,11.876
9.52,0.000,0.000,12.107
9.53,0.000,0.000,12.308
9.54,0.000,0.000,12.478
9.55,0.000,0.000,12.614
9.56,0.000,0.000,12.713
9.57,0.000,0.000,12.775
9.58,0.000,0.000,12.800
9.59,0.000,0.000,12.786
9.60,0.000,0.000,12.733
9.61,0.000,0.000,12.644
9.62,0.000,0.000,12.518
9.63,0.000,0.000,12.357
9.64,0.000,0.000,12.164
9.65,0.000,0.000,11.940
9.66,0.000,0.000,11.689
9.67,0.000,0.000,11.414
9.68,0.000,0.000,11.118
9.69,0.000,0.000,10.806
9.70,0.000,0.000,10.480
9.71,0.000,0.000,10.146
9.72,0.000,0.000,9.808
9.73,0.000,0.000,9.469
9.74,0.000,0.000,9.135
9.75,0.000,0.000,8.809
9.76,0.000,0.000,8.495
9.77,0.000,0.000,8.199
9.78,0.000,0.000,7.923
9.79,0.000,0.000,7.671
9.80,0.000,0.000,7.446
9.81,0.000,0.000,7.251
9.82,0.000,0.000,7.089
9.83,0.000,0.000,6.961
9.84,0.000,0.000,6.870
9.85,0.000,0.000,6.816
9.86,0.000,0.000,6.800
9.87,0.000,0.000,6.823
9.88,0.000,0.000,6.883
9.89,0.000,0.000,6.981
9.90,0.000,0.000,7.115
9.91,0.000,0.000,7.283
9.92,0.000,0.000,7.484
9.93,0.000,0.000,7.714
9.94,0.000,0.000,7.970
9.95,0.000,0.000,8.250
9.96,0.000,0.000,8.550
9.97,0.000,0.000,8.866
9.98,0.000,0.000,9.193
9.99,0.000,0.000,9.529
10.00,0.000,0.000,9.868
10.01,0.000,0.000,10.206
10.02,0.000,0.000,10.539
10.03,0.000,0.000,10.862
10.04,0.000,0.000,11.172
10.05,0.000,0.000,11.464
10.06,0.000,0.000,11.735
10.07,0.000,0.000,11.982
10.08,0.000,0.000,12.200
10.09,0.000,0.000,12.388
10.10,0.000,0.000,12.543
10.11,0.000,0.000,12.662
10.12,0.000,0.000,12.745
10.13,0.000,0.000,12.791
10.14,0.000,0.000,12.798
10.15,0.000,0.000,12.767
10.16,0.000,0.000,12.698
10.17,0.000,0.000,12.592
10.18,0.000,0.000,12.450
10.19,0.000,0.000,12.275
10.20,0.000,0.000,12.068
10.21,0.000,0.000,11.832
10.22,0.000,0.000,11.569
10.23,0.000,0.000,11.285
10.24,0.000,0.000,10.981
10.25,0.000,0.000,10.662
10.26,0.000,0.000,10.332
10.27,0.000,0.000,9.996
10.28,0.000,0.000,9.657
10.29,0.000,0.000,9.320
10.30,0.000,0.000,8.988
10.31,0.000,0.000,8.668
10.32,0.000,0.000,8.361
10.33,0.000,0.000,8.073
10.34,0.000,0.000,7.808
10.35,0.000,0.000,7.567
10.36,0.000,0.000,7.355
10.37,0.000,0.000,7.175
10.38,0.000,0.000,7.028
10.39,0.000,0.000,6.916
10.40,0.000,0.000,6.841
10.41,0.000,0.000,6.804
10.42,0.000,0.000,6.805
10.43,0.000,0.000,6.845
10.44,0.000,0.000,6.922
10.45,0.000,0.000,7.036
10.46,0.000,0.000,7.186
10.47,0.000,0.000,7.369
10.48,0.000,0.000,7.582
10.49,0.000,0.000,7.825
10.50,0.000,0.000,8.092
10.51,0.000,0.000,8.381
10.52,0.000,0.000,8.689
10.53,0.000,0.000,9.010
10.54,0.000,0.000,9.342
10.55,0.000,0.000,9.679
10.56,0.000,0.000,10.018
10.57,0.000,0.000,10.355
10.58,0.000,0.000,10.684
10.59,0.000,0.000,11.002
10.60,0.000,0.000,11.304
10.61,0.000,0.000,11.588
10.62,0.000,0.000,11.848
10.63,0.000,0.000,12.082
10.64,0.000,0.000,12.288
10.65,0.000,0.000,12.461
10.66,0.000,0.000,12.600
10.67,0.000,0.000,12.704
10.68,0.000,0.000,12.770
10.69,0.000,0.000,12.799
10.70,0.000,0.000,12.789
10.71,0.000,0.000,12.741
10.72,0.000,0.000,12.655
10.73,0.000,0.000,12.533
10.74,0.000,0.000,12.376
10.75,0.000,0.000,12.187
10.76,0.000,0.000,11.966
10.77,0.000,0.000,11.718
10.78,0.000,0.000,11.446
10.79,0.000,0.000,11.152
10.80,0.000,0.000,10.841
10.81,0.000,0.000,10.517
10.82,0.000,0.000,10.183
10.83,0.000,0.000,9.845
10.84,0.000,0.000,9.506
10.85,0.000,0.000,9.171
10.86,0.000,0.000,8.844
10.87,0.000,0.000,8.529
10.88,0.000,0.000,8.231
10.89,0.000,0.000,7.952
10.90,0.000,0.000,7.697
10.91,0.000,0.000,7.469
10.92,0.000,0.000,7.271
10.93,0.000,0.000,7.105
10.94,0.000,0.000,6.974
10.95,0.000,0.000,6.878
10.96,0.000,0.000,6.820
10.97,0.000,0.000,6.800
10.98,0.000,0.000,6.818
10.99,0.000,0.000,6.875
11.00,0.000,0.000,6.969
11.01,0.000,0.000,7.098
11.02,0.000,0.000,7.263
11.03,0.000,0.000,7.460
11.04,0.000,0.000,7.687
11.05,0.000,0.000,7.940
11.06,0.000,0.000,8.218
11.07,0.000,0.000,8.516
11.08,0.000,0.000,8.830
11.09,0.000,0.000,9.157
11.10,0.000,0.000,9.491
11.11,0.000,0.000,9.830
11.12,0.000,0.000,10.169
11.13,0.000,0.000,10.502
11.14,0.000,0.000,10.827
11.15,0.000,0.000,11.138
11.16,0.000,0.000,11.433
11.17,0.000,0.000,11.706
11.18,0.000,0.000,11.956
11.19,0.000,0.000,12.177
11.20,0.000,0.000,12.369
11.21,0.000,0.000,12.527
11.22,0.000,0.000,12.651
11.23,0.000,0.000,12.738
11.24,0.000,0.000,12.788
11.25,0.000,0.000,12.799
11.26,0.000,0.000,12.772
11.27,0.000,0.000,12.708
11.28,0.000,0.000,12.606
11.29,0.000,0.000,12.468
11.30,0.000,0.000,12.296
11.31,0.000,0.000,12.092
11.32,0.000,0.000,11.859
11.33,0.000,0.000,11.600
11.34,0.000,0.000,11.317
11.35,0.000,0.000,11.016
11.36,0.000,0.000,10.698
11.37,0.000,0.000,10.370
11.38,0.000,0.000,10.033
11.39,0.000,0.000,9.694
11.40,0.000,0.000,9.357
11.41,0.000,0.000,9.025
11.42,0.000,0.000,8.703
11.43,0.000,0.000,8.395
11.44,0.000,0.000,8.104
11.45,0.000,0.000,7.836
11.46,0.000,0.000,7.593
11.47,0.000,0.000,7.377
11.48,0.000,0.000,7.193
11.49,0.000,0.000,7.042
11.50,0.000,0.000,6.927
11.51,0.000,0.000,6.848
11.52,0.000,0.000,6.806
11.53,0.000,0.000,6.803
11.54,0.000,0.000,6.839
11.55,0.000,0.000,6.912
11.56,0.000,0.000,7.022
11.57,0.000,0.000,7.167
11.58,0.000,0.000,7.347
11.59,0.000,0.000,7.557
11.60,0.000,0.000,7.796
11.61,0.000,0.000,8.061
11.62,0.000,0.000,8.348
11.63,0.000,0.000,8.654
11.64,0.000,0.000,8.974
11.65,0.000,0.000,9.305
11.66,0.000,0.000,9.642
11.67,0.000,0.000,9.981
11.68,0.000,0.000,10.318
11.69,0.000,0.000,10.648
11.70,0.000,0.000,10.967
11.71,0.000,0.000,11.272
11.72,0.000,0.000,11.557
11.73,0.000,0.000,11.820
11.74,0.000,0.000,12.058
11.75,0.000,0.000,12.266
11.76,0.000,0.000,12.443
11.77,0.000,0.000,12.587
11.78,0.000,0.000,12.694
11.79,0.000,0.000,12.765
11.80,0.000,0.000,12.798
11.81,0.000,0.000,12.792
11.82,0.000,0.000,12.748
11.83,0.000,0.000,12.667
11.84,0.000,0.000,12.549
11.85,0.000,0.000,12.396
11.86,0.000,0.000,12.209
11.87,0.000,0.000,11.992
11.88,0.000,0.000,11.747
11.89,0.000,0.000,11.477
11.90,0.000,0.000,11.185
11.91,0.000,0.000,10.876
11.92,0.000,0.000,10.553
11.93,0.000,0.000,10.221
11.94,0.000,0.000,9.883
11.95,0.000,0.000,9.544
11.96,0.000,0.000,9.208
11.97,0.000,0.000,8.880
11.98,0.000,0.000,8.564
11.99,0.000,0.000,8.263
12.00,0.000,0.000,7.982
12.01,0.000,0.000,7.724
12.02,0.000,0.000,7.493
12.03,0.000,0.000,7.292
12.04,0.000,0.000,7.122
12.05,0.000,0.000,6.986
12.06,0.000,0.000,6.887
12.07,0.000,0.000,6.825
12.08,0.000,0.000,6.800
12.09,0.000,0.000,6.814
12.10,0.000,0.000,6.867
12.11,0.000,0.000,6.956
12.12,0.000,0.000,7.082
12.13,0.000,0.000,7.243
12.14,0.000,0.000,7.436
12.15,0.000,0.000,7.660
12.16,0.000,0.000,7.911
12.17,0.000,0.000,8.186
12.18,0.000,0.000,8.482
12.19,0.000,0.000,8.794
12.20,0.000,0.000,9.120
12.21,0.000,0.000,9.454
12.22,0.000,0.000,9.792
12.23,0.000,0.000,10.131
12.24,0.000,0.000,10.465
12.25,0.000,0.000,10.791
12.26,0.000,0.000,11.105
12.27,0.000,0.000,11.401
12.28,0.000,0.000,11.677
12.29,0.000,0.000,11.929
12.30,0.000,0.000,12.154
12.31,0.000,0.000,12.349
12.32,0.000,0.000,12.511
12.33,0.000,0.000,12.639
12.34,0.000,0.000,12.730
12.35,0.000,0.000,12.784
12.36,0.000,0.000,12.800
12.37,0.000,0.000,12.777
12.38,0.000,0.000,12.717
12.39,0.000,0.000,12.619
12.40,0.000,0.000,12.485
12.41,0.000,0.000,12.317
12.42,0.000,0.000,12.116
12.43,0.000,0.000,11.886
12.44,0.000,0.000,11.630
12.45,0.000,0.000,11.350
12.46,0.000,0.000,11.050
12.47,0.000,0.000,10.734
12.48,0.000,0.000,10.407
12.49,0.000,0.000,10.071
12.50,0.000,0.000,9.732
12.51,0.000,0.000,9.394
12.52,0.000,0.000,9.061
12.53,0.000,0.000,8.738
12.54,0.000,0.000,8.428
12.55,0.000,0.000,8.136
12.56,0.000,0.000,7.865
12.57,0.000,0.000,7.618
12.58,0.000,0.000,7.400
12.59,0.000,0.000,7.212
12.60,0.000,0.000,7.057
12.61,0.000,0.000,6.938
12.62,0.000,0.000,6.855
12.63,0.000,0.000,6.809
12.64,0.000,0.000,6.802
12.65,0.000,0.000,6.833
12.66,0.000,0.000,6.902
12.67,0.000,0.000,7.008
12.68,0.000,0.000,7.150
12.69,0.000,0.000,7.325
12.70,0.000,0.000,7.532
12.71,0.000,0.000,7.768
12.72,0.000,0.000,8.031
12.73,0.000,0.000,8.315
12.74,0.000,0.000,8.619
12.75,0.000,0.000,8.938
12.76,0.000,0.000,9.268
12.77,0.000,0.000,9.604
12.78,0.000,0.000,9.943
12.79,0.000,0.000,10.280
12.80,0.000,0.000,10.612
12.81,0.000,0.000,10.932
12.82,0.000,0.000,11.239
12.83,0.000,0.000,11.527
12.84,0.000,0.000,11.792
12.85,0.000,0.000,12.033
12.86,0.000,0.000,12.245
12.87,0.000,0.000,12.425
12.88,0.000,0.000,12.572
12.89,0.000,0.000,12.684
12.90,0.000,0.000,12.759
12.91,0.000,0.000,12.796
12.92,0.000,0.000,12.795
12.93,0.000,0.000,12.755
12.94,0.000,0.000,12.678
12.95,0.000,0.000,12.564
12.96,0.000,0.000,12.414
12.97,0.000,0.000,12.231
12.98,0.000,0.000,12.018
12.99,0.000,0.000,11.775
13.00,0.000,0.000,11.508
13.01,0.000,0.000,11.219
13.02,0.000,0.000,10.911
13.03,0.000,0.000,10.590
13.04,0.000,0.000,10.258
13.05,0.000,0.000,9.921
13.06,0.000,0.000,9.582
13.07,0.000,0.000,9.245
13.08,0.000,0.000,8.916
13.09,0.000,0.000,8.598
13.10,0.000,0.000,8.296
13.11,0.000,0.000,8.012
13.12,0.000,0.000,7.752
13.13,0.000,0.000,7.518
13.14,0.000,0.000,7.312
13.15,0.000,0.000,7.139
13.16,0.000,0.000,7.000
13.17,0.000,0.000,6.896
13.18,0.000,0.000,6.830
13.19,0.000,0.000,6.801
13.20,0.000,0.000,6.811
13.21,0.000,0.000,6.859
13.22,0.000,0.000,6.945
13.23,0.000,0.000,7.067
13.24,0.000,0.000,7.224
13.25,0.000,0.000,7.413
13.26,0.000,0.000,7.634
13.27,0.000,0.000,7.882
13.28,0.000,0.000,8.154
13.29,0.000,0.000,8.448
13.30,0.000,0.000,8.759
13.31,0.000,0.000,9.083
13.32,0.000,0.000,9.417
13.33,0.000,0.000,9.755
13.34,0.000,0.000,10.094
13.35,0.000,0.000,10.429
13.36,0.000,0.000,10.756
13.37,0.000,0.000,11.071
13.38,0.000,0.000,11.369
13.39,0.000,0.000,11.648
13.40,0.000,0.000,11.903
13.41,0.000,0.000,12.131
13.42,0.000,0.000,12.329
13.43,0.000,0.000,12.495
13.44,0.000,0.000,12.626
13.45,0.000,0.000,12.722
13.46,0.000,0.000,12.780
13.47,0.000,0.000,12.800
13.48,0.000,0.000,12.782
13.49,0.000,0.000,12.725
13.50,0.000,0.000,12.631
13.51,0.000,0.000,12.502
13.52,0.000,0.000,12.337
13.53,0.000,0.000,12.140
13.54,0.000,0.000,11.913
13.55,0.000,0.000,11.660
13.56,0.000,0.000,11.382
13.57,0.000,0.000,11.084
13.58,0.000,0.000,10.770
13.59,0.000,0.000,10.443
13.60,0.000,0.000,10.109
13.61,0.000,0.000,9.770
13.62,0.000,0.000,9.431
13.63,0.000,0.000,9.098
13.64,0.000,0.000,8.773
13.65,0.000,0.000,8.462
13.66,0.000,0.000,8.167
13.67,0.000,0.000,7.894
13.68,0.000,0.000,7.644
13.69,0.000,0.000,7.423
13.70,0.000,0.000,7.231
13.71,0.000,0.000,7.073
13.72,0.000,0.000,6.949
13.73,0.000,0.000,6.862
13.74,0.000,0.000,6.812
13.75,0.000,0.000,6.801
13.76,0.000,0.000,6.828
13.77,0.000,0.000,6.892
13.78,0.000,0.000,6.994
13.79,0.000,0.000,7.132
13.80,0.000,0.000,7.304
13.81,0.000,0.000,7.508
13.82,0.000,0.000,7.741
13.83,0.000,0.000,8.000
13.84,0.000,0.000,8.283
13.85,0.000,0.000,8.584
13.86,0.000,0.000,8.902
13.87,0.000,0.000,9.230
13.88,0.000,0.000,9.567
13.89,0.000,0.000,9.906
13.90,0.000,0.000,10.243
13.91,0.000,0.000,10.575
13.92,0.000,0.000,10.897
13.93,0.000,0.000,11.205
13.94,0.000,0.000,11.496
13.95,0.000,0.000,11.764
13.96,0.000,0.000,12.007
13.97,0.000,0.000,12.223
13.98,0.000,0.000,12.407
13.99,0.000,0.000,12.558
14.00,0.000,0.000,12.673
14.01,0.000,0.000,12.752
14.02,0.000,0.000,12.794
14.03,0.000,0.000,12.797
14.04,0.000,0.000,12.761
14.05,0.000,0.000,12.688
14.06,0.000,0.000,12.578
14.07,0.000,0.000,12.433
14.08,0.000,0.000,12.253
14.09,0.000,0.000,12.043
14.10,0.000,0.000,11.804
14.11,0.000,0.000,11.539
14.12,0.000,0.000,11.252
14.13,0.000,0.000,10.946
14.14,0.000,0.000,10.626
14.15,0.000,0.000,10.295
14.16,0.000,0.000,9.958
14.17,0.000,0.000,9.619
14.18,0.000,0.000,9.282
14.19,0.000,0.000,8.952
14.20,0.000,0.000,8.633
14.21,0.000,0.000,8.328
14.22,0.000,0.000,8.043
14.23,0.000,0.000,7.780
14.24,0.000,0.000,7.542
14.25,0.000,0.000,7.334
14.26,0.000,0.000,7.157
14.27,0.000,0.000,7.013
14.28,0.000,0.000,6.906
14.29,0.000,0.000,6.835
14.30,0.000,0.000,6.802
14.31,0.000,0.000,6.808
14.32,0.000,0.000,6.852
14.33,0.000,0.000,6.933
14.34,0.000,0.000,7.051
14.35,0.000,0.000,7.204
14.36,0.000,0.000,7.391
14.37,0.000,0.000,7.608
14.38,0.000,0.000,7.853
14.39,0.000,0.000,8.123
14.40,0.000,0.000,8.415
14.41,0.000,0.000,8.724
14.42,0.000,0.000,9.047
14.43,0.000,0.000,9.379
14.44,0.000,0.000,9.717
14.45,0.000,0.000,10.056
14.46,0.000,0.000,10.392
14.47,0.000,0.000,10.720
14.48,0.000,0.000,11.036
14.49,0.000,0.000,11.337
14.50,0.000,0.000,11.618
14.51,0.000,0.000,11.876
14.52,0.000,0.000,12.107
14.53,0.000,0.000,12.308
14.54,0.000,0.000,12.478
14.55,0.000,0.000,12.614
14.56,0.000,0.000,12.713
14.57,0.000,0.000,12.775
14.58,0.000,0.000,12.800
14.59,0.000,0.000,12.786
14.60,0.000,0.000,12.733
14.61,0.000,0.000,12.644
14.62,0.000,0.000,12.518
14.63,0.000,0.000,12.357
14.64,0.000,0.000,12.164
14.65,0.000,0.000,11.940
14.66,0.000,0.000,11.689
14.67,0.000,0.000,11.414
14.68,0.000,0.000,11.118
14.69,0.000,0.000,10.806
14.70,0.000,0.000,10.480
14.71,0.000,0.000,10.146
14.72,0.000,0.000,9.808
14.73,0.000,0.000,9.469
14.74,0.000,0.000,9.135
14.75,0.000,0.000,8.809
14.76,0.000,0.000,8.495
14.77,0.000,0.000,8.199
14.78,0.000,0.000,7.923
14.79,0.000,0.000,7.671
14.80,0.000,0.000,7.446
14.81,0.000,0.000,7.251
14.82,0.000,0.000,7.089
14.83,0.000,0.000,6.961
14.84,0.000,0.000,6.870
14.85,0.000,0.000,6.816
14.86,0.000,0.000,6.800
14.87,0.000,0.000,6.823
14.88,0.000,0.000,6.883
14.89,0.000,0.000,6.981
14.90,0.000,0.000,7.115
14.91,0.000,0.000,7.283
14.92,0.000,0.000,7.484
14.93,0.000,0.000,7.714
14.94,0.000,0.000,7.970
14.95,0.000,0.000,8.250
14.96,0.000,0.000,8.550
14.97,0.000,0.000,8.866
14.98,0.000,0.000,9.193
14.99,0.000,0.000,9.529
15.00,0.000,0.000,9.868
15.01,0.000,0.000,10.206
15.02,0.000,0.000,10.539
15.03,0.000,0.000,10.862
15.04,0.000,0.000,11.172
15.05,0.000,0.000,11.464
15.06,0.000,0.000,11.735
15.07,0.000,0.000,11.982
15.08,0.000,0.000,12.200
15.09,0.000,0.000,12.388
15.10,0.000,0.000,12.543
15.11,0.000,0.000,12.662
15.12,0.000,0.000,12.745
15.13,0.000,0.000,12.791
15.14,0.000,0.000,12.798
15.15,0.000,0.000,12.767
15.16,0.000,0.000,12.698
15.17,0.000,0.000,12.592
15.18,0.000,0.000,12.450
15.19,0.000,0.000,12.275
15.20,0.000,0.000,12.068
15.21,0.000,0.000,11.832
15.22,0.000,0.000,11.569
15.23,0.000,0.000,11.285
15.24,0.000,0.000,10.981
15.25,0.000,0.000,10.662
15.26,0.000,0.000,10.332
15.27,0.000,0.000,9.996
15.28,0.000,0.000,9.657
15.29,0.000,0.000,9.320
15.30,0.000,0.000,8.988
15.31,0.000,0.000,8.668
15.32,0.000,0.000,8.361
15.33,0.000,0.000,8.073
15.34,0.000,0.000,7.808
15.35,0.000,0.000,7.567
15.36,0.000,0.000,7.355
15.37,0.000,0.000,7.175
15.38,0.000,0.000,7.028
15.39,0.000,0.000,6.916
15.40,0.000,0.000,6.841
15.41,0.000,0.000,6.804
15.42,0.000,0.000,6.805
15.43,0.000,0.000,6.845
15.44,0.000,0.000,6.922
15.45,0.000,0.000,7.036
15.46,0.000,0.000,7.186
15.47,0.000,0.000,7.369
15.48,0.000,0.000,7.582
15.49,0.000,0.000,7.825
15.50,0.000,0.000,8.092
15.51,0.000,0.000,8.381
15.52,0.000,0.000,8.689
15.53,0.000,0.000,9.010
15.54,0.000,0.000,9.342
15.55,0.000,0.000,9.679
15.56,0.000,0.000,10.018
15.57,0.000,0.000,10.355
15.58,0.000,0.000,10.684
15.59,0.000,0.000,11.002
15.60,0.000,0.000,11.304
15.61,0.000,0.000,11.588
15.62,0.000,0.000,11.848
15.63,0.000,0.000,12.082
15.64,0.000,0.000,12.288
15.65,0.000,0.000,12.461
15.66,0.000,0.000,12.600
15.67,0.000,0.000,12.704
15.68,0.000,0.000,12.770
15.69,0.000,0.000,12.799
15.70,0.000,0.000,12.789
15.71,0.000,0.000,12.741
15.72,0.000,0.000,12.655
15.73,0.000,0.000,12.533
15.74,0.000,0.000,12.376
15.75,0.000,0.000,12.187
15.76,0.000,0.000,11.966
15.77,0.000,0.000,11.718
15.78,0.000,0.000,11.446
15.79,0.000,0.000,11.152
15.80,0.000,0.000,10.841
15.81,0.000,0.000,10.517
15.82,0.000,0.000,10.183
15.83,0.000,0.000,9.845
15.84,0.000,0.000,9.506
15.85,0.000,0.000,9.171
15.86,0.000,0.000,8.844
15.87,0.000,0.000,8.529
15.88,0.000,0.000,8.231
15.89,0.000,0.000,7.952
15.90,0.000,0.000,7.697
15.91,0.000,0.000,7.469
15.92,0.000,0.000,7.271
15.93,0.000,0.000,7.105
15.94,0.000,0.000,6.974
15.95,0.000,0.000,6.878
15.96,0.000,0.000,6.820
15.97,0.000,0.000,6.800
15.98,0.000,0.000,6.818
15.99,0.000,0.000,6.875
16.00,0.000,0.000,6.969
16.01,0.000,0.000,7.098
16.02,0.000,0.000,7.263
16.03,0.000,0.000,7.460
16.04,0.000,0.000,7.687
16.05,0.000,0.000,7.940
16.06,0.000,0.000,8.218
16.07,0.000,0.000,8.516
16.08,0.000,0.000,8.830
16.09,0.000,0.000,9.157
16.10,0.000,0.000,9.491
16.11,0.000,0.000,9.830
16.12,0.000,0.000,10.169
16.13,0.000,0.000,10.502
16.14,0.000,0.000,10.827
16.15,0.000,0.000,11.138
16.16,0.000,0.000,11.433
16.17,0.000,0.000,11.706
16.18,0.000,0.000,11.956
16.19,0.000,0.000,12.177
16.20,0.000,0.000,12.369
16.21,0.000,0.000,12.527
16.22,0.000,0.000,12.651
16.23,0.000,0.000,12.738
16.24,0.000,0.000,12.788
16.25,0.000,0.000,12.799
16.26,0.000,0.000,12.772
16.27,0.000,0.000,12.708
16.28,0.000,0.000,12.606
16.29,0.000,0.000,12.468
16.30,0.000,0.000,12.296
16.31,0.000,0.000,12.092
16.32,0.000,0.000,11.859
16.33,0.000,0.000,11.600
16.34,0.000,0.000,11.317
16.35,0.000,0.000,11.016
16.36,0.000,0.000,10.698
16.37,0.000,0.000,10.370
16.38,0.000,0.000,10.033
16.39,0.000,0.000,9.694
16.40,0.000,0.000,9.357
16.41,0.000,0.000,9.025
16.42,0.000,0.000,8.703
16.43,0.000,0.000,8.395
16.44,0.000,0.000,8.104
16.45,0.000,0.000,7.836
16.46,0.000,0.000,7.593
16.47,0.000,0.000,7.377
16.48,0.000,0.000,7.193
16.49,0.000,0.000,7.042
16.50,0.000,0.000,6.927
16.51,0.000,0.000,6.848
16.52,0.000,0.000,6.806
16.53,0.000,0.000,6.803
16.54,0.000,0.000,6.839
16.55,0.000,0.000,6.912
16.56,0.000,0.000,7.022
16.57,0.000,0.000,7.167
16.58,0.000,0.000,7.347
16.59,0.000,0.000,7.557
16.60,0.000,0.000,7.796
16.61,0.000,0.000,8.061
16.62,0.000,0.000,8.348
16.63,0.000,0.000,8.654
16.64,0.000,0.000,8.974
16.65,0.000,0.000,9.305
16.66,0.000,0.000,9.642
16.67,0.000,0.000,9.981
16.68,0.000,0.000,10.318
16.69,0.000,0.000,10.648
16.70,0.000,0.000,10.967
16.71,0.000,0.000,11.272
16.72,0.000,0.000,11.557
16.73,0.000,0.000,11.820
16.74,0.000,0.000,12.058
16.75,0.000,0.000,12.266
16.76,0.000,0.000,12.443
16.77,0.000,0.000,12.587
16.78,0.000,0.000,12.694
16.79,0.000,0.000,12.765
16.80,0.000,0.000,12.798
16.81,0.000,0.000,12.792
16.82,0.000,0.000,12.748
16.83,0.000,0.000,12.667
16.84,0.000,0.000,12.549
16.85,0.000,0.000,12.396
16.86,0.000,0.000,12.209
16.87,0.000,0.000,11.992
16.88,0.000,0.000,11.747
16.89,0.000,0.000,11.477
16.90,0.000,0.000,11.185
16.91,0.000,0.000,10.876
16.92,0.000,0.000,10.553
16.93,0.000,0.000,10.221
16.94,0.000,0.000,9.883
16.95,0.000,0.000,9.544
16.96,0.000,0.000,9.208
16.97,0.000,0.000,8.880
16.98,0.000,0.000,8.564
16.99,0.000,0.000,8.263
17.00,0.000,0.000,7.982
17.01,0.000,0.000,7.724
17.02,0.000,0.000,7.493
17.03,0.000,0.000,7.292
17.04,0.000,0.000,7.122
17.05,0.000,0.000,6.986
17.06,0.000,0.000,6.887
17.07,0.000,0.000,6.825
17.08,0.000,0.000,6.800
17.09,0.000,0.000,6.814
17.10,0.000,0.000,6.867
17.11,0.000,0.000,6.956
17.12,0.000,0.000,7.082
17.13,0.000,0.000,7.243
17.14,0.000,0.000,7.436
17.15,0.000,0.000,7.660
17.16,0.000,0.000,7.911
17.17,0.000,0.000,8.186
17.18,0.000,0.000,8.482
17.19,0.000,0.000,8.794
17.20,0.000,0.000,9.120
17.21,0.000,0.000,9.454
17.22,0.000,0.000,9.792
17.23,0.000,0.000,10.131
17.24,0.000,0.000,10.465
17.25,0.000,0.000,10.791
17.26,0.000,0.000,11.105
17.27,0.000,0.000,11.401
17.28,0.000,0.000,11.677
17.29,0.000,0.000,11.929
17.30,0.000,0.000,12.154
17.31,0.000,0.000,12.349
17.32,0.000,0.000,12.511
17.33,0.000,0.000,12.639
17.34,0.000,0.000,12.730
17.35,0.000,0.000,12.784
17.36,0.000,0.000,12.800
17.37,0.000,0.000,12.777
17.38,0.000,0.000,12.717
17.39,0.000,0.000,12.619
17.40,0.000,0.000,12.485
17.41,0.000,0.000,12.317
17.42,0.000,0.000,12.116
17.43,0.000,0.000,11.886
17.44,0.000,0.000,11.630
17.45,0.000,0.000,11.350
17.46,0.000,0.000,11.050
17.47,0.000,0.000,10.734
17.48,0.000,0.000,10.407
17.49,0.000,0.000,10.071
17.50,0.000,0.000,9.732
17.51,0.000,0.000,9.394
17.52,0.000,0.000,9.061
17.53,0.000,0.000,8.738
17.54,0.000,0.000,8.428
17.55,0.000,0.000,8.136
17.56,0.000,0.000,7.865
17.57,0.000,0.000,7.618
17.58,0.000,0.000,7.400
17.59,0.000,0.000,7.212
17.60,0.000,0.000,7.057
17.61,0.000,0.000,6.938
17.62,0.000,0.000,6.855
17.63,0.000,0.000,6.809
17.64,0.000,0.000,6.802
17.65,0.000,0.000,6.833
17.66,0.000,0.000,6.902
17.67,0.000,0.000,7.008
17.68,0.000,0.000,7.150
17.69,0.000,0.000,7.325
17.70,0.000,0.000,7.532
17.71,0.000,0.000,7.768
17.72,0.000,0.000,8.031
17.73,0.000,0.000,8.315
17.74,0.000,0.000,8.619
17.75,0.000,0.000,8.938
17.76,0.000,0.000,9.267
17.77,0.000,0.000,9.604
17.78,0.000,0.000,9.943
17.79,0.000,0.000,10.280
17.80,0.000,0.000,10.612
17.81,0.000,0.000,10.932
17.82,0.000,0.000,11.239
17.83,0.000,0.000,11.527
17.84,0.000,0.000,11.792
17.85,0.000,0.000,12.033
17.86,0.000,0.000,12.245
17.87,0.000,0.000,12.425
17.88,0.000,0.000,12.572
17.89,0.000,0.000,12.684
17.90,0.000,0.000,12.759
17.91,0.000,0.000,12.796
17.92,0.000,0.000,12.795
17.93,0.000,0.000,12.755
17.94,0.000,0.000,12.678
17.95,0.000,0.000,12.564
17.96,0.000,0.000,12.414
17.97,0.000,0.000,12.231
17.98,0.000,0.000,12.018
17.99,0.000,0.000,11.775
18.00,0.000,0.000,11.508
18.01,0.000,0.000,11.219
18.02,0.000,0.000,10.911
18.03,0.000,0.000,10.590
18.04,0.000,0.000,10.258
18.05,0.000,0.000,9.921
18.06,0.000,0.000,9.582
18.07,0.000,0.000,9.245
18.08,0.000,0.000,8.916
18.09,0.000,0.000,8.598
18.10,0.000,0.000,8.296
18.11,0.000,0.000,8.012
18.12,0.000,0.000,7.752
18.13,0.000,0.000,7.518
18.14,0.000,0.000,7.312
18.15,0.000,0.000,7.139
18.16,0.000,0.000,7.000
18.17,0.000,0.000,6.896
18.18,0.000,0.000,6.830
18.19,0.000,0.000,6.801
18.20,0.000,0.000,6.811
18.21,0.000,0.000,6.859
18.22,0.000,0.000,6.945
18.23,0.000,0.000,7.067
18.24,0.000,0.000,7.224
18.25,0.000,0.000,7.413
18.26,0.000,0.000,7.634
18.27,0.000,0.000,7.882
18.28,0.000,0.000,8.154
18.29,0.000,0.000,8.448
18.30,0.000,0.000,8.759
18.31,0.000,0.000,9.083
18.32,0.000,0.000,9.417
18.33,0.000,0.000,9.755
18.34,0.000,0.000,10.094
18.35,0.000,0.000,10.429
18.36,0.000,0.000,10.756
18.37,0.000,0.000,11.071
18.38,0.000,0.000,11.369
18.39,0.000,0.000,11.648
18.40,0.000,0.000,11.903
18.41,0.000,0.000,12.131
18.42,0.000,0.000,12.329
18.43,0.000,0.000,12.495
18.44,0.000,0.000,12.626
18.45,0.000,0.000,12.722
18.46,0.000,0.000,12.780
18.47,0.000,0.000,12.800
18.48,0.000,0.000,12.782
18.49,0.000,0.000,12.725
18.50,0.000,0.000,12.631
18.51,0.000,0.000,12.502
18.52,0.000,0.000,12.337
18.53,0.000,0.000,12.140
18.54,0.000,0.000,11.913
18.55,0.000,0.000,11.660
18.56,0.000,0.000,11.382
18.57,0.000,0.000,11.084
18.58,0.000,0.000,10.770
18.59,0.000,0.000,10.443
18.60,0.000,0.000,10.109
18.61,0.000,0.000,9.770
18.62,0.000,0.000,9.431
18.63,0.000,0.000,9.098
18.64,0.000,0.000,8.773
18.65,0.000,0.000,8.462
18.66,0.000,0.000,8.167
18.67,0.000,0.000,7.894
18.68,0.000,0.000,7.644
18.69,0.000,0.000,7.423
18.70,0.000,0.000,7.231
18.71,0.000,0.000,7.073
18.72,0.000,0.000,6.949
18.73,0.000,0.000,6.862
18.74,0.000,0.000,6.812
18.75,0.000,0.000,6.801
18.76,0.000,0.000,6.828
18.77,0.000,0.000,6.892
18.78,0.000,0.000,6.994
18.79,0.000,0.000,7.132
18.80,0.000,0.000,7.304
18.81,0.000,0.000,7.508
18.82,0.000,0.000,7.741
18.83,0.000,0.000,8.000
18.84,0.000,0.000,8.283
18.85,0.000,0.000,8.584
18.86,0.000,0.000,8.902
18.87,0.000,0.000,9.230
18.88,0.000,0.000,9.567
18.89,0.000,0.000,9.906
18.90,0.000,0.000,10.243
18.91,0.000,0.000,10.575
18.92,0.000,0.000,10.897
18.93,0.000,0.000,11.205
18.94,0.000,0.000,11.496
18.95,0.000,0.000,11.764
18.96,0.000,0.000,12.007
18.97,0.000,0.000,12.223
18.98,0.000,0.000,12.407
18.99,0.000,0.000,12.558
19.00,0.000,0.000,12.673
19.01,0.000,0.000,12.752
19.02,0.000,0.000,12.794
19.03,0.000,0.000,12.797
19.04,0.000,0.000,12.761
19.05,0.000,0.000,12.688
19.06,0.000,0.000,12.578
19.07,0.000,0.000,12.433
19.08,0.000,0.000,12.253
19.09,0.000,0.000,12.043
19.10,0.000,0.000,11.804
19.11,0.000,0.000,11.539
19.12,0.000,0.000,11.252
19.13,0.000,0.000,10.946
19.14,0.000,0.000,10.626
19.15,0.000,0.000,10.295
19.16,0.000,0.000,9.958
19.17,0.000,0.000,9.619
19.18,0.000,0.000,9.282
19.19,0.000,0.000,8.952
19.20,0.000,0.000,8.633
19.21,0.000,0.000,8.328
19.22,0.000,0.000,8.043
19.23,0.000,0.000,7.780
19.24,0.000,0.000,7.542
19.25,0.000,0.000,7.334
19.26,0.000,0.000,7.157
19.27,0.000,0.000,7.013
19.28,0.000,0.000,6.906
19.29,0.000,0.000,6.835
19.30,0.000,0.000,6.802
19.31,0.000,0.000,6.808
19.32,0.000,0.000,6.852
19.33,0.000,0.000,6.933
19.34,0.000,0.000,7.051
19.35,0.000,0.000,7.204
19.36,0.000,0.000,7.391
19.37,0.000,0.000,7.608
19.38,0.000,0.000,7.853
19.39,0.000,0.000,8.123
19.40,0.000,0.000,8.415
19.41,0.000,0.000,8.724
19.42,0.000,0.000,9.047
19.43,0.000,0.000,9.379
19.44,0.000,0.000,9.717
19.45,0.000,0.000,10.056
19.46,0.000,0.000,10.392
19.47,0.000,0.000,10.720
19.48,0.000,0.000,11.036
19.49,0.000,0.000,11.337
19.50,0.000,0.000,11.618
19.51,0.000,0.000,11.876
19.52,0.000,0.000,12.107
19.53,0.000,0.000,12.308
19.54,0.000,0.000,12.478
19.55,0.000,0.000,12.614
19.56,0.000,0.000,12.713
19.57,0.000,0.000,12.775
19.58,0.000,0.000,12.800
19.59,0.000,0.000,12.786
19.60,0.000,0.000,12.733
19.61,0.000,0.000,12.644
19.62,0.000,0.000,12.518
19.63,0.000,0.000,12.357
19.64,0.000,0.000,12.164
19.65,0.000,0.000,11.940
19.66,0.000,0.000,11.689
19.67,0.000,0.000,11.414
19.68,0.000,0.000,11.118
19.69,0.000,0.000,10.806
19.70,0.000,0.000,10.480
19.71,0.000,0.000,10.146
19.72,0.000,0.000,9.808
19.73,0.000,0.000,9.469
19.74,0.000,0.000,9.135
19.75,0.000,0.000,8.809
19.76,0.000,0.000,8.495
19.77,0.000,0.000,8.199
19.78,0.000,0.000,7.923
19.79,0.000,0.000,7.671
19.80,0.000,0.000,7.446
19.81,0.000,0.000,7.251
19.82,0.000,0.000,7.089
19.83,0.000,0.000,6.961
19.84,0.000,0.000,6.870
19.85,0.000,0.000,6.816
19.86,0.000,0.000,6.800
19.87,0.000,0.000,6.823
19.88,0.000,0.000,6.883
19.89,0.000,0.000,6.981
19.90,0.000,0.000,7.115
19.91,0.000,0.000,7.283
19.92,0.000,0.000,7.484
19.93,0.000,0.000,7.714
19.94,0.000,0.000,7.970
19.95,0.000,0.000,8.250
19.96,0.000,0.000,8.550
19.97,0.000,0.000,8.866
19.98,0.000,0.000,9.193
19.99,0.000,0.000,9.529
20.00,0.000,0.000,9.924
20.01,0.000,0.000,10.526
20.02,0.000,0.000,11.055
20.03,0.000,0.000,11.459
20.04,0.000,0.000,11.701
20.05,0.000,0.000,11.761
20.06,0.000,0.000,11.642
20.07,0.000,0.000,11.366
20.08,0.000,0.000,10.975
20.09,0.000,0.000,10.520
20.10,0.000,0.000,10.062
20.11,0.000,0.000,9.660
20.12,0.000,0.000,9.365
20.13,0.000,0.000,9.214
20.14,0.000,0.000,9.228
20.15,0.000,0.000,9.404
20.16,0.000,0.000,9.721
20.17,0.000,0.000,10.138
20.18,0.000,0.000,10.605
20.19,0.000,0.000,11.059
20.20,0.000,0.000,11.444
20.21,0.000,0.000,11.705
20.22,0.000,0.000,11.806
20.23,0.000,0.000,11.725
20.24,0.000,0.000,11.464
20.25,0.000,0.000,11.044
20.26,0.000,0.000,10.503
20.27,0.000,0.000,9.897
20.28,0.000,0.000,9.285
20.29,0.000,0.000,8.729
20.30,0.000,0.000,8.285
20.31,0.000,0.000,7.994
20.32,0.000,0.000,7.881
20.33,0.000,0.000,7.950
20.34,0.000,0.000,8.182
20.35,0.000,0.000,8.543
20.36,0.000,0.000,8.982
20.37,0.000,0.000,9.440
20.38,0.000,0.000,9.858
20.39,0.000,0.000,10.181
20.40,0.000,0.000,10.368
20.41,0.000,0.000,10.394
20.42,0.000,0.000,10.255
20.43,0.000,0.000,9.968
20.44,0.000,0.000,9.567
20.45,0.000,0.000,9.103
20.46,0.000,0.000,8.634
20.47,0.000,0.000,8.220
20.48,0.000,0.000,7.916
20.49,0.000,0.000,7.764
20.50,0.000,0.000,7.791
20.51,0.000,0.000,8.001
20.52,0.000,0.000,8.380
20.53,0.000,0.000,8.890
20.54,0.000,0.000,9.484
20.55,0.000,0.000,10.100
20.56,0.000,0.000,10.677
20.57,0.000,0.000,11.157
20.58,0.000,0.000,11.495
20.59,0.000,0.000,11.659
20.60,0.000,0.000,11.642
20.61,0.000,0.000,11.455
20.62,0.000,0.000,11.129
20.63,0.000,0.000,10.710
20.64,0.000,0.000,10.256
20.65,0.000,0.000,9.827
20.66,0.000,0.000,9.478
20.67,0.000,0.000,9.257
20.68,0.000,0.000,9.191
20.69,0.000,0.000,9.292
20.70,0.000,0.000,9.547
20.71,0.000,0.000,9.927
20.72,0.000,0.000,10.385
20.73,0.000,0.000,10.864
20.74,0.000,0.000,11.304
20.75,0.000,0.000,11.647
20.76,0.000,0.000,11.848
20.77,0.000,0.000,11.875
20.78,0.000,0.000,11.717
20.79,0.000,0.000,11.385
20.80,0.000,0.000,10.908
20.81,0.000,0.000,10.333
20.82,0.000,0.000,9.718
20.83,0.000,0.000,9.124
20.84,0.000,0.000,8.612
20.85,0.000,0.000,8.231
20.86,0.000,0.000,8.016
20.87,0.000,0.000,7.981
20.88,0.000,0.000,8.121
20.89,0.000,0.000,8.410
20.90,0.000,0.000,8.805
20.91,0.000,0.000,9.251
20.92,0.000,0.000,9.689
20.93,0.000,0.000,10.059
20.94,0.000,0.000,10.313
20.95,0.000,0.000,10.418
20.96,0.000,0.000,10.357
20.97,0.000,0.000,10.135
20.98,0.000,0.000,9.780
20.99,0.000,0.000,9.332
21.00,0.000,0.000,8.847
21.01,0.000,0.000,8.385
21.02,0.000,0.000,8.005
21.03,0.000,0.000,7.757
21.04,0.000,0.000,7.677
21.05,0.000,0.000,7.780
21.06,0.000,0.000,8.064
21.07,0.000,0.000,8.503
21.08,0.000,0.000,9.054
21.09,0.000,0.000,9.663
21.10,0.000,0.000,10.268
21.11,0.000,0.000,10.808
21.12,0.000,0.000,11.230
21.13,0.000,0.000,11.494
21.14,0.000,0.000,11.580
21.15,0.000,0.000,11.488
21.16,0.000,0.000,11.239
21.17,0.000,0.000,10.871
21.18,0.000,0.000,10.437
21.19,0.000,0.000,9.996
21.20,0.000,0.000,9.607
21.21,0.000,0.000,9.322
21.22,0.000,0.000,9.180
21.23,0.000,0.000,9.201
21.24,0.000,0.000,9.386
21.25,0.000,0.000,9.715
21.26,0.000,0.000,10.148
21.27,0.000,0.000,10.635
21.28,0.000,0.000,11.114
21.29,0.000,0.000,11.527
21.30,0.000,0.000,11.820
21.31,0.000,0.000,11.954
21.32,0.000,0.000,11.905
21.33,0.000,0.000,11.672
21.34,0.000,0.000,11.275
21.35,0.000,0.000,10.752
21.36,0.000,0.000,10.154
21.37,0.000,0.000,9.543
21.38,0.000,0.000,8.981
21.39,0.000,0.000,8.522
21.40,0.000,0.000,8.212
21.41,0.000,0.000,8.075
21.42,0.000,0.000,8.118
21.43,0.000,0.000,8.324
21.44,0.000,0.000,8.661
21.45,0.000,0.000,9.079
21.46,0.000,0.000,9.520
21.47,0.000,0.000,9.924
21.48,0.000,0.000,10.237
21.49,0.000,0.000,10.416
21.50,0.000,0.000,10.434
21.51,0.000,0.000,10.287
21.52,0.000,0.000,9.989
21.53,0.000,0.000,9.574
21.54,0.000,0.000,9.090
21.55,0.000,0.000,8.597
21.56,0.000,0.000,8.155
21.57,0.000,0.000,7.819
21.58,0.000,0.000,7.635
21.59,0.000,0.000,7.628
21.60,0.000,0.000,7.808
21.61,0.000,0.000,8.159
21.62,0.000,0.000,8.650
21.63,0.000,0.000,9.231
21.64,0.000,0.000,9.843
21.65,0.000,0.000,10.423
21.66,0.000,0.000,10.914
21.67,0.000,0.000,11.269
21.68,0.000,0.000,11.455
21.69,0.000,0.000,11.462
21.70,0.000,0.000,11.300
21.71,0.000,0.000,10.997
21.72,0.000,0.000,10.599
21.73,0.000,0.000,10.162
21.74,0.000,0.000,9.746
21.75,0.000,0.000,9.408
21.76,0.000,0.000,9.195
21.77,0.000,0.000,9.136
21.78,0.000,0.000,9.245
21.79,0.000,0.000,9.510
21.80,0.000,0.000,9.904
21.81,0.000,0.000,10.380
21.82,0.000,0.000,10.882
21.83,0.000,0.000,11.349
21.84,0.000,0.000,11.724
21.85,0.000,0.000,11.959
21.86,0.000,0.000,12.020
21.87,0.000,0.000,11.895
21.88,0.000,0.000,11.592
21.89,0.000,0.000,11.138
21.90,0.000,0.000,10.580
21.91,0.000,0.000,9.972
21.92,0.000,0.000,9.379
21.93,0.000,0.000,8.859
21.94,0.000,0.000,8.464
21.95,0.000,0.000,8.229
21.96,0.000,0.000,8.172
21.97,0.000,0.000,8.289
21.98,0.000,0.000,8.555
21.99,0.000,0.000,8.930
22.00,0.000,0.000,9.358
22.01,0.000,0.000,9.782
22.02,0.000,0.000,10.142
22.03,0.000,0.000,10.388
22.04,0.000,0.000,10.486
22.05,0.000,0.000,10.418
22.06,0.000,0.000,10.187
22.07,0.000,0.000,9.819
22.08,0.000,0.000,9.355
22.09,0.000,0.000,8.848
22.10,0.000,0.000,8.359
22.11,0.000,0.000,7.948
22.12,0.000,0.000,7.666
22.13,0.000,0.000,7.550
22.14,0.000,0.000,7.619
22.15,0.000,0.000,7.872
22.16,0.000,0.000,8.284
22.17,0.000,0.000,8.817
22.18,0.000,0.000,9.414
22.19,0.000,0.000,10.015
22.20,0.000,0.000,10.559
22.21,0.000,0.000,10.992
22.22,0.000,0.000,11.273
22.23,0.000,0.000,11.379
22.24,0.000,0.000,11.310
22.25,0.000,0.000,11.082
22.26,0.000,0.000,10.735
22.27,0.000,0.000,10.318
22.28,0.000,0.000,9.891
22.29,0.000,0.000,9.512
22.30,0.000,0.000,9.235
22.31,0.000,0.000,9.099
22.32,0.000,0.000,9.126
22.33,0.000,0.000,9.319
22.34,0.000,0.000,9.659
22.35,0.000,0.000,10.108
22.36,0.000,0.000,10.615
22.37,0.000,0.000,11.121
22.38,0.000,0.000,11.564
22.39,0.000,0.000,11.892
22.40,0.000,0.000,12.061
22.41,0.000,0.000,12.047
22.42,0.000,0.000,11.848
22.43,0.000,0.000,11.480
22.44,0.000,0.000,10.979
22.45,0.000,0.000,10.397
22.46,0.000,0.000,9.793
22.47,0.000,0.000,9.229
22.48,0.000,0.000,8.763
22.49,0.000,0.000,8.438
22.50,0.000,0.000,8.283
22.51,0.000,0.000,8.305
22.52,0.000,0.000,8.491
22.53,0.000,0.000,8.809
22.54,0.000,0.000,9.210
22.55,0.000,0.000,9.637
22.56,0.000,0.000,10.031
22.57,0.000,0.000,10.336
22.58,0.000,0.000,10.509
22.59,0.000,0.000,10.523
22.60,0.000,0.000,10.368
22.61,0.000,0.000,10.060
22.62,0.000,0.000,9.631
22.63,0.000,0.000,9.128
22.64,0.000,0.000,8.610
22.65,0.000,0.000,8.138
22.66,0.000,0.000,7.769
22.67,0.000,0.000,7.548
22.68,0.000,0.000,7.505
22.69,0.000,0.000,7.649
22.70,0.000,0.000,7.970
22.71,0.000,0.000,8.435
22.72,0.000,0.000,8.997
22.73,0.000,0.000,9.599
22.74,0.000,0.000,10.177
22.75,0.000,0.000,10.673
22.76,0.000,0.000,11.038
22.77,0.000,0.000,11.241
22.78,0.000,0.000,11.267
22.79,0.000,0.000,11.124
22.80,0.000,0.000,10.839
22.81,0.000,0.000,10.458
22.82,0.000,0.000,10.034
22.83,0.000,0.000,9.629
22.84,0.000,0.000,9.298
22.85,0.000,0.000,9.090
22.86,0.000,0.000,9.036
22.87,0.000,0.000,9.150
22.88,0.000,0.000,9.424
22.89,0.000,0.000,9.830
22.90,0.000,0.000,10.324
22.91,0.000,0.000,10.849
22.92,0.000,0.000,11.346
22.93,0.000,0.000,11.754
22.94,0.000,0.000,12.025
22.95,0.000,0.000,12.123
22.96,0.000,0.000,12.035
22.97,0.000,0.000,11.765
22.98,0.000,0.000,11.339
22.99,0.000,0.000,10.802
23.00,0.000,0.000,10.209
23.01,0.000,0.000,9.621
23.02,0.000,0.000,9.100
23.03,0.000,0.000,8.696
23.04,0.000,0.000,8.448
23.05,0.000,0.000,8.374
23.06,0.000,0.000,8.473
23.07,0.000,0.000,8.722
23.08,0.000,0.000,9.080
23.09,0.000,0.000,9.496
23.10,0.000,0.000,9.910
23.11,0.000,0.000,10.263
23.12,0.000,0.000,10.505
23.13,0.000,0.000,10.598
23.14,0.000,0.000,10.525
23.15,0.000,0.000,10.288
23.16,0.000,0.000,9.909
23.17,0.000,0.000,9.428
23.18,0.000,0.000,8.900
23.19,0.000,0.000,8.383
23.20,0.000,0.000,7.940
23.21,0.000,0.000,7.622
23.22,0.000,0.000,7.468
23.23,0.000,0.000,7.500
23.24,0.000,0.000,7.717
23.25,0.000,0.000,8.099
23.26,0.000,0.000,8.607
23.27,0.000,0.000,9.187
23.28,0.000,0.000,9.779
23.29,0.000,0.000,10.321
23.30,0.000,0.000,10.759
23.31,0.000,0.000,11.051
23.32,0.000,0.000,11.172
23.33,0.000,0.000,11.119
23.34,0.000,0.000,10.908
23.35,0.000,0.000,10.576
23.36,0.000,0.000,10.172
23.37,0.000,0.000,9.754
23.38,0.000,0.000,9.381
23.39,0.000,0.000,9.108
23.40,0.000,0.000,8.976
23.41,0.000,0.000,9.007
23.42,0.000,0.000,9.206
23.43,0.000,0.000,9.554
23.44,0.000,0.000,10.018
23.45,0.000,0.000,10.545
23.46,0.000,0.000,11.076
23.47,0.000,0.000,11.551
23.48,0.000,0.000,11.914
23.49,0.000,0.000,12.121
23.50,0.000,0.000,12.146
23.51,0.000,0.000,11.983
23.52,0.000,0.000,11.648
23.53,0.000,0.000,11.175
23.54,0.000,0.000,10.613
23.55,0.000,0.000,10.021
23.56,0.000,0.000,9.463
23.57,0.000,0.000,8.994
23.58,0.000,0.000,8.662
23.59,0.000,0.000,8.494
23.60,0.000,0.000,8.501
23.61,0.000,0.000,8.672
23.62,0.000,0.000,8.975
23.63,0.000,0.000,9.364
23.64,0.000,0.000,9.782
23.65,0.000,0.000,10.170
23.66,0.000,0.000,10.472
23.67,0.000,0.000,10.643
23.68,0.000,0.000,10.653
23.69,0.000,0.000,10.495
23.70,0.000,0.000,10.179
23.71,0.000,0.000,9.737
23.72,0.000,0.000,9.217
23.73,0.000,0.000,8.675
23.74,0.000,0.000,8.173
23.75,0.000,0.000,7.769
23.76,0.000,0.000,7.510
23.77,0.000,0.000,7.428
23.78,0.000,0.000,7.535
23.79,0.000,0.000,7.820
23.80,0.000,0.000,8.255
23.81,0.000,0.000,8.794
23.82,0.000,0.000,9.380
23.83,0.000,0.000,9.949
23.84,0.000,0.000,10.445
23.85,0.000,0.000,10.816
23.86,0.000,0.000,11.028
23.87,0.000,0.000,11.067
23.88,0.000,0.000,10.938
23.89,0.000,0.000,10.667
23.90,0.000,0.000,10.297
23.91,0.000,0.000,9.882
23.92,0.000,0.000,9.482
23.93,0.000,0.000,9.154
23.94,0.000,0.000,8.947
23.95,0.000,0.000,8.895
23.96,0.000,0.000,9.012
23.97,0.000,0.000,9.291
23.98,0.000,0.000,9.708
23.99,0.000,0.000,10.218
24.00,0.000,0.000,10.766
24.01,0.000,0.000,11.290
24.02,0.000,0.000,11.732
24.03,0.000,0.000,12.040
24.04,0.000,0.000,12.178
24.05,0.000,0.000,12.128
24.06,0.000,0.000,11.895
24.07,0.000,0.000,11.502
24.08,0.000,0.000,10.991
24.09,0.000,0.000,10.416
24.10,0.000,0.000,9.840
24.11,0.000,0.000,9.323
24.12,0.000,0.000,8.917
24.13,0.000,0.000,8.661
24.14,0.000,0.000,8.576
24.15,0.000,0.000,8.662
24.16,0.000,0.000,8.899
24.17,0.000,0.000,9.247
24.18,0.000,0.000,9.654
24.19,0.000,0.000,10.063
24.20,0.000,0.000,10.413
24.21,0.000,0.000,10.654
24.22,0.000,0.000,10.748
24.23,0.000,0.000,10.674
24.24,0.000,0.000,10.433
24.25,0.000,0.000,10.045
24.26,0.000,0.000,9.550
24.27,0.000,0.000,9.002
24.28,0.000,0.000,8.459
24.29,0.000,0.000,7.984
24.30,0.000,0.000,7.629
24.31,0.000,0.000,7.436
24.32,0.000,0.000,7.429
24.33,0.000,0.000,7.608
24.34,0.000,0.000,7.955
24.35,0.000,0.000,8.434
24.36,0.000,0.000,8.992
24.37,0.000,0.000,9.570
24.38,0.000,0.000,10.105
24.39,0.000,0.000,10.543
24.40,0.000,0.000,10.840
24.41,0.000,0.000,10.970
24.42,0.000,0.000,10.927
24.43,0.000,0.000,10.728
24.44,0.000,0.000,10.405
24.45,0.000,0.000,10.009
24.46,0.000,0.000,9.595
24.47,0.000,0.000,9.225
24.48,0.000,0.000,8.952
24.49,0.000,0.000,8.818
24.50,0.000,0.000,8.849
24.51,0.000,0.000,9.050
24.52,0.000,0.000,9.405
24.53,0.000,0.000,9.880
24.54,0.000,0.000,10.425
24.55,0.000,0.000,10.980
24.56,0.000,0.000,11.486
24.57,0.000,0.000,11.884
24.58,0.000,0.000,12.129
24.59,0.000,0.000,12.195
24.60,0.000,0.000,12.071
24.61,0.000,0.000,11.772
24.62,0.000,0.000,11.330
24.63,0.000,0.000,10.792
24.64,0.000,0.000,10.219
24.65,0.000,0.000,9.670
24.66,0.000,0.000,9.205
24.67,0.000,0.000,8.870
24.68,0.000,0.000,8.695
24.69,0.000,0.000,8.694
24.70,0.000,0.000,8.854
24.71,0.000,0.000,9.148
24.72,0.000,0.000,9.530
24.73,0.000,0.000,9.945
24.74,0.000,0.000,10.331
24.75,0.000,0.000,10.634
24.76,0.000,0.000,10.807
24.77,0.000,0.000,10.819
24.78,0.000,0.000,10.660
24.79,0.000,0.000,10.341
24.80,0.000,0.000,9.890
24.81,0.000,0.000,9.353
24.82,0.000,0.000,8.789
24.83,0.000,0.000,8.259
24.84,0.000,0.000,7.821
24.85,0.000,0.000,7.524
24.86,0.000,0.000,7.402
24.87,0.000,0.000,7.469
24.88,0.000,0.000,7.717
24.89,0.000,0.000,8.119
24.90,0.000,0.000,8.631
24.91,0.000,0.000,9.196
24.92,0.000,0.000,9.752
24.93,0.000,0.000,10.241
24.94,0.000,0.000,10.612
24.95,0.000,0.000,10.829
24.96,0.000,0.000,10.876
24.97,0.000,0.000,10.755
24.98,0.000,0.000,10.492
24.99,0.000,0.000,10.128
25.00,0.000,0.000,9.717
25.01,0.000,0.000,9.317
25.02,0.000,0.000,8.988
25.03,0.000,0.000,8.778
25.04,0.000,0.000,8.722
25.05,0.000,0.000,8.838
25.06,0.000,0.000,9.119
25.07,0.000,0.000,9.543
25.08,0.000,0.000,10.066
25.09,0.000,0.000,10.633
25.10,0.000,0.000,11.184
25.11,0.000,0.000,11.658
25.12,0.000,0.000,12.003
25.13,0.000,0.000,12.180
25.14,0.000,0.000,12.171
25.15,0.000,0.000,11.976
25.16,0.000,0.000,11.618
25.17,0.000,0.000,11.137
25.18,0.000,0.000,10.586
25.19,0.000,0.000,10.026
25.20,0.000,0.000,9.517
25.21,0.000,0.000,9.114
25.22,0.000,0.000,8.856
25.23,0.000,0.000,8.765
25.24,0.000,0.000,8.844
25.25,0.000,0.000,9.074
25.26,0.000,0.000,9.416
25.27,0.000,0.000,9.821
25.28,0.000,0.000,10.230
25.29,0.000,0.000,10.583
25.30,0.000,0.000,10.828
25.31,0.000,0.000,10.926
25.32,0.000,0.000,10.855
25.33,0.000,0.000,10.614
25.34,0.000,0.000,10.222
25.35,0.000,0.000,9.717
25.36,0.000,0.000,9.151
25.37,0.000,0.000,8.585
25.38,0.000,0.000,8.079
25.39,0.000,0.000,7.689
25.40,0.000,0.000,7.457
25.41,0.000,0.000,7.409
25.42,0.000,0.000,7.548
25.43,0.000,0.000,7.859
25.44,0.000,0.000,8.307
25.45,0.000,0.000,8.839
25.46,0.000,0.000,9.398
25.47,0.000,0.000,9.921
25.48,0.000,0.000,10.354
25.49,0.000,0.000,10.650
25.50,0.000,0.000,10.784
25.51,0.000,0.000,10.747
25.52,0.000,0.000,10.554
25.53,0.000,0.000,10.236
25.54,0.000,0.000,9.841
25.55,0.000,0.000,9.427
25.56,0.000,0.000,9.054
25.57,0.000,0.000,8.775
25.58,0.000,0.000,8.636
25.59,0.000,0.000,8.662
25.60,0.000,0.000,8.860
25.61,0.000,0.000,9.217
25.62,0.000,0.000,9.700
25.63,0.000,0.000,10.259
25.64,0.000,0.000,10.837
25.65,0.000,0.000,11.370
25.66,0.000,0.000,11.802
25.67,0.000,0.000,12.086
25.68,0.000,0.000,12.191
25.69,0.000,0.000,12.108
25.70,0.000,0.000,11.846
25.71,0.000,0.000,11.438
25.72,0.000,0.000,10.928
25.73,0.000,0.000,10.376
25.74,0.000,0.000,9.842
25.75,0.000,0.000,9.385
25.76,0.000,0.000,9.052
25.77,0.000,0.000,8.876
25.78,0.000,0.000,8.870
25.79,0.000,0.000,9.026
25.80,0.000,0.000,9.317
25.81,0.000,0.000,9.697
25.82,0.000,0.000,10.112
25.83,0.000,0.000,10.503
25.84,0.000,0.000,10.812
25.85,0.000,0.000,10.992
25.86,0.000,0.000,11.011
25.87,0.000,0.000,10.857
25.88,0.000,0.000,10.537
25.89,0.000,0.000,10.081
25.90,0.000,0.000,9.533
25.91,0.000,0.000,8.950
25.92,0.000,0.000,8.394
25.93,0.000,0.000,7.924
25.94,0.000,0.000,7.591
25.95,0.000,0.000,7.429
25.96,0.000,0.000,7.456
25.97,0.000,0.000,7.665
25.98,0.000,0.000,8.031
25.99,0.000,0.000,8.513
26.00,0.000,0.000,9.054
26.01,0.000,0.000,9.594
26.02,0.000,0.000,10.073
26.03,0.000,0.000,10.439
26.04,0.000,0.000,10.655
26.05,0.000,0.000,10.704
26.06,0.000,0.000,10.587
26.07,0.000,0.000,10.327
26.08,0.000,0.000,9.964
26.09,0.000,0.000,9.550
26.10,0.000,0.000,9.147
26.11,0.000,0.000,8.810
26.12,0.000,0.000,8.592
26.13,0.000,0.000,8.528
26.14,0.000,0.000,8.636
26.15,0.000,0.000,8.915
26.16,0.000,0.000,9.341
26.17,0.000,0.000,9.873
26.18,0.000,0.000,10.456
26.19,0.000,0.000,11.030
26.20,0.000,0.000,11.534
26.21,0.000,0.000,11.914
26.22,0.000,0.000,12.130
26.23,0.000,0.000,12.161
26.24,0.000,0.000,12.006
26.25,0.000,0.000,11.685
26.26,0.000,0.000,11.235
26.27,0.000,0.000,10.710
26.28,0.000,0.000,10.169
26.29,0.000,0.000,9.674
26.30,0.000,0.000,9.277
26.31,0.000,0.000,9.022
26.32,0.000,0.000,8.931
26.33,0.000,0.000,9.008
26.34,0.000,0.000,9.235
26.35,0.000,0.000,9.578
26.36,0.000,0.000,9.985
26.37,0.000,0.000,10.398
26.38,0.000,0.000,10.759
26.39,0.000,0.000,11.014
26.40,0.000,0.000,11.122
26.41,0.000,0.000,11.060
26.42,0.000,0.000,10.824
26.43,0.000,0.000,10.432
26.44,0.000,0.000,9.921
26.45,0.000,0.000,9.343
26.46,0.000,0.000,8.756
26.47,0.000,0.000,8.222
26.48,0.000,0.000,7.799
26.49,0.000,0.000,7.530
26.50,0.000,0.000,7.442
26.51,0.000,0.000,7.541
26.52,0.000,0.000,7.815
26.53,0.000,0.000,8.228
26.54,0.000,0.000,8.733
26.55,0.000,0.000,9.270
26.56,0.000,0.000,9.778
26.57,0.000,0.000,10.201
26.58,0.000,0.000,10.493
26.59,0.000,0.000,10.626
26.60,0.000,0.000,10.590
26.61,0.000,0.000,10.397
26.62,0.000,0.000,10.079
26.63,0.000,0.000,9.681
26.64,0.000,0.000,9.262
26.65,0.000,0.000,8.880
26.66,0.000,0.000,8.591
26.67,0.000,0.000,8.440
26.68,0.000,0.000,8.455
26.69,0.000,0.000,8.646
26.70,0.000,0.000,9.000
26.71,0.000,0.000,9.486
26.72,0.000,0.000,10.055
26.73,0.000,0.000,10.650
26.74,0.000,0.000,11.208
26.75,0.000,0.000,11.671
26.76,0.000,0.000,11.991
26.77,0.000,0.000,12.135
26.78,0.000,0.000,12.092
26.79,0.000,0.000,11.869
26.80,0.000,0.000,11.495
26.81,0.000,0.000,11.016
26.82,0.000,0.000,10.487
26.83,0.000,0.000,9.971
26.84,0.000,0.000,9.525
26.85,0.000,0.000,9.198
26.86,0.000,0.000,9.025
26.87,0.000,0.000,9.020
26.88,0.000,0.000,9.176
26.89,0.000,0.000,9.468
26.90,0.000,0.000,9.852
26.91,0.000,0.000,10.273
26.92,0.000,0.000,10.673
26.93,0.000,0.000,10.994
26.94,0.000,0.000,11.186
26.95,0.000,0.000,11.217
26.96,0.000,0.000,11.073
26.97,0.000,0.000,10.759
26.98,0.000,0.000,10.303
26.99,0.000,0.000,9.748
27.00,0.000,0.000,9.151
27.01,0.000,0.000,8.573
27.02,0.000,0.000,8.074
27.03,0.000,0.000,7.707
27.04,0.000,0.000,7.507
27.05,0.000,0.000,7.494
27.06,0.000,0.000,7.665
27.07,0.000,0.000,7.996
27.08,0.000,0.000,8.446
27.09,0.000,0.000,8.961
27.10,0.000,0.000,9.481
27.11,0.000,0.000,9.946
27.12,0.000,0.000,10.304
27.13,0.000,0.000,10.516
27.14,0.000,0.000,10.563
27.15,0.000,0.000,10.444
27.16,0.000,0.000,10.182
27.17,0.000,0.000,9.815
27.18,0.000,0.000,9.395
27.19,0.000,0.000,8.981
27.20,0.000,0.000,8.633
27.21,0.000,0.000,8.400
27.22,0.000,0.000,8.323
27.23,0.000,0.000,8.419
27.24,0.000,0.000,8.690
27.25,0.000,0.000,9.113
27.26,0.000,0.000,9.648
27.27,0.000,0.000,10.243
27.28,0.000,0.000,10.836
27.29,0.000,0.000,11.366
27.30,0.000,0.000,11.778
27.31,0.000,0.000,12.031
27.32,0.000,0.000,12.100
27.33,0.000,0.000,11.984
27.34,0.000,0.000,11.699
27.35,0.000,0.000,11.282
27.36,0.000,0.000,10.785
27.37,0.000,0.000,10.266
27.38,0.000,0.000,9.786
27.39,0.000,0.000,9.400
27.40,0.000,0.000,9.150
27.41,0.000,0.000,9.063
27.42,0.000,0.000,9.142
27.43,0.000,0.000,9.372
27.44,0.000,0.000,9.719
27.45,0.000,0.000,10.133
27.46,0.000,0.000,10.557
27.47,0.000,0.000,10.931
27.48,0.000,0.000,11.201
27.49,0.000,0.000,11.324
27.50,0.000,0.000,11.276
27.51,0.000,0.000,11.051
27.52,0.000,0.000,10.665
27.53,0.000,0.000,10.154
27.54,0.000,0.000,9.567
27.55,0.000,0.000,8.964
27.56,0.000,0.000,8.408
27.57,0.000,0.000,7.954
27.58,0.000,0.000,7.650
27.59,0.000,0.000,7.525
27.60,0.000,0.000,7.586
27.61,0.000,0.000,7.822
27.62,0.000,0.000,8.202
27.63,0.000,0.000,8.677
27.64,0.000,0.000,9.191
27.65,0.000,0.000,9.682
27.66,0.000,0.000,10.092
27.67,0.000,0.000,10.377
27.68,0.000,0.000,10.505
27.69,0.000,0.000,10.466
27.70,0.000,0.000,10.269
27.71,0.000,0.000,9.946
27.72,0.000,0.000,9.541
27.73,0.000,0.000,9.111
27.74,0.000,0.000,8.715
27.75,0.000,0.000,8.410
27.76,0.000,0.000,8.242
27.77,0.000,0.000,8.242
27.78,0.000,0.000,8.419
27.79,0.000,0.000,8.765
27.80,0.000,0.000,9.248
27.81,0.000,0.000,9.822
27.82,0.000,0.000,10.429
27.83,0.000,0.000,11.007
27.84,0.000,0.000,11.498
27.85,0.000,0.000,11.850
27.86,0.000,0.000,12.031
27.87,0.000,0.000,12.025
27.88,0.000,0.000,11.840
27.89,0.000,0.000,11.501
27.90,0.000,0.000,11.052
27.91,0.000,0.000,10.548
27.92,0.000,0.000,10.051
27.93,0.000,0.000,9.619
27.94,0.000,0.000,9.302
27.95,0.000,0.000,9.135
27.96,0.000,0.000,9.134
27.97,0.000,0.000,9.294
27.98,0.000,0.000,9.591
27.99,0.000,0.000,9.983
28.00,0.000,0.000,10.416
28.01,0.000,0.000,10.830
28.02,0.000,0.000,11.167
28.03,0.000,0.000,11.378
28.04,0.000,0.000,11.427
28.05,0.000,0.000,11.298
28.06,0.000,0.000,10.996
28.07,0.000,0.000,10.545
28.08,0.000,0.000,9.989
28.09,0.000,0.000,9.383
28.10,0.000,0.000,8.788
28.11,0.000,0.000,8.265
28.12,0.000,0.000,7.867
28.13,0.000,0.000,7.632
28.14,0.000,0.000,7.582
28.15,0.000,0.000,7.715
28.16,0.000,0.000,8.011
28.17,0.000,0.000,8.430
28.18,0.000,0.000,8.918
28.19,0.000,0.000,9.417
28.20,0.000,0.000,9.867
28.21,0.000,0.000,10.214
28.22,0.000,0.000,10.419
28.23,0.000,0.000,10.460
28.24,0.000,0.000,10.337
28.25,0.000,0.000,10.069
28.26,0.000,0.000,9.694
28.27,0.000,0.000,9.262
28.28,0.000,0.000,8.834
28.29,0.000,0.000,8.468
28.30,0.000,0.000,8.216
28.31,0.000,0.000,8.119
28.32,0.000,0.000,8.198
28.33,0.000,0.000,8.454
28.34,0.000,0.000,8.868
28.35,0.000,0.000,9.401
28.36,0.000,0.000,10.002
28.37,0.000,0.000,10.609
28.38,0.000,0.000,11.160
28.39,0.000,0.000,11.600
28.40,0.000,0.000,11.886
28.41,0.000,0.000,11.992
28.42,0.000,0.000,11.912
28.43,0.000,0.000,11.662
28.44,0.000,0.000,11.278
28.45,0.000,0.000,10.808
28.46,0.000,0.000,10.312
28.47,0.000,0.000,9.849
28.48,0.000,0.000,9.475
28.49,0.000,0.000,9.235
28.50,0.000,0.000,9.153
28.51,0.000,0.000,9.238
28.52,0.000,0.000,9.474
28.53,0.000,0.000,9.829
28.54,0.000,0.000,10.255
28.55,0.000,0.000,10.694
28.56,0.000,0.000,11.086
28.57,0.000,0.000,11.376
28.58,0.000,0.000,11.520
28.59,0.000,0.000,11.492
28.60,0.000,0.000,11.284
28.61,0.000,0.000,10.910
28.62,0.000,0.000,10.404
28.63,0.000,0.000,9.815
28.64,0.000,0.000,9.202
28.65,0.000,0.000,8.627
28.66,0.000,0.000,8.148
28.67,0.000,0.000,7.814
28.68,0.000,0.000,7.653
28.69,0.000,0.000,7.679
28.70,0.000,0.000,7.880
28.71,0.000,0.000,8.226
28.72,0.000,0.000,8.673
28.73,0.000,0.000,9.163
28.74,0.000,0.000,9.635
28.75,0.000,0.000,10.032
28.76,0.000,0.000,10.306
28.77,0.000,0.000,10.427
28.78,0.000,0.000,10.382
28.79,0.000,0.000,10.179
28.80,0.000,0.000,9.847
28.81,0.000,0.000,9.430
28.82,0.000,0.000,8.985
28.83,0.000,0.000,8.571
28.84,0.000,0.000,8.245
28.85,0.000,0.000,8.055
28.86,0.000,0.000,8.033
28.87,0.000,0.000,8.191
28.88,0.000,0.000,8.522
28.89,0.000,0.000,8.996
28.90,0.000,0.000,9.569
28.91,0.000,0.000,10.183
28.92,0.000,0.000,10.776
28.93,0.000,0.000,11.289
28.94,0.000,0.000,11.670
28.95,0.000,0.000,11.883
28.96,0.000,0.000,11.913
28.97,0.000,0.000,11.762
28.98,0.000,0.000,11.456
28.99,0.000,0.000,11.037
29.00,0.000,0.000,10.558
29.01,0.000,0.000,10.081
29.02,0.000,0.000,9.664
29.03,0.000,0.000,9.358
29.04,0.000,0.000,9.199
29.05,0.000,0.000,9.205
29.06,0.000,0.000,9.372
29.07,0.000,0.000,9.678
29.08,0.000,0.000,10.081
29.09,0.000,0.000,10.529
29.10,0.000,0.000,10.962
29.11,0.000,0.000,11.321
29.12,0.000,0.000,11.555
29.13,0.000,0.000,11.627
29.14,0.000,0.000,11.519
29.15,0.000,0.000,11.235
29.16,0.000,0.000,10.796
29.17,0.000,0.000,10.245
29.18,0.000,0.000,9.635
29.19,0.000,0.000,9.029
29.20,0.000,0.000,8.486
29.21,0.000,0.000,8.063
29.22,0.000,0.000,7.798
29.23,0.000,0.000,7.714
29.24,0.000,0.000,7.813
29.25,0.000,0.000,8.075
29.26,0.000,0.000,8.464
29.27,0.000,0.000,8.926
29.28,0.000,0.000,9.404
29.29,0.000,0.000,9.837
29.30,0.000,0.000,10.172
29.31,0.000,0.000,10.368
29.32,0.000,0.000,10.402
29.33,0.000,0.000,10.272
29.34,0.000,0.000,9.995
29.35,0.000,0.000,9.608
29.36,0.000,0.000,9.162
29.37,0.000,0.000,8.715
29.38,0.000,0.000,8.327
29.39,0.000,0.000,8.051
29.40,0.000,0.000,7.929
29.41,0.000,0.000,7.985
29.42,0.000,0.000,8.221
29.43,0.000,0.000,8.620
29.44,0.000,0.000,9.145
29.45,0.000,0.000,9.745
29.46,0.000,0.000,10.360
29.47,0.000,0.000,10.927
29.48,0.000,0.000,11.390
29.49,0.000,0.000,11.704
29.50,0.000,0.000,11.842
29.51,0.000,0.000,11.796
29.52,0.000,0.000,11.579
29.53,0.000,0.000,11.225
29.54,0.000,0.000,10.782
29.55,0.000,0.000,10.308
29.56,0.000,0.000,9.862
29.57,0.000,0.000,9.502
29.58,0.000,0.000,9.270
29.59,0.000,0.000,9.197
29.60,0.000,0.000,9.289
29.61,0.000,0.000,9.534
29.62,0.000,0.000,9.901
29.63,0.000,0.000,10.342
29.64,0.000,0.000,10.799
29.65,0.000,0.000,11.214
29.66,0.000,0.000,11.528
29.67,0.000,0.000,11.699
29.68,0.000,0.000,11.695
29.69,0.000,0.000,11.510
29.70,0.000,0.000,11.154
29.71,0.000,0.000,10.659
29.72,0.000,0.000,10.074
29.73,0.000,0.000,9.457
29.74,0.000,0.000,8.869
29.75,0.000,0.000,8.371
29.76,0.000,0.000,8.011
29.77,0.000,0.000,7.820
29.78,0.000,0.000,7.813
29.79,0.000,0.000,7.982
29.80,0.000,0.000,8.298
29.81,0.000,0.000,8.717
29.82,0.000,0.000,9.184
29.83,0.000,0.000,9.638
29.84,0.000,0.000,10.021
29.85,0.000,0.000,10.285
29.86,0.000,0.000,10.398
29.87,0.000,0.000,10.345
29.88,0.000,0.000,10.133
29.89,0.000,0.000,9.790
29.90,0.000,0.000,9.358
29.91,0.000,0.000,8.894
29.92,0.000,0.000,8.458
29.93,0.000,0.000,8.107
29.94,0.000,0.000,7.890
29.95,0.000,0.000,7.841
29.96,0.000,0.000,7.974
29.97,0.000,0.000,8.284
29.98,0.000,0.000,8.744
29.99,0.000,0.000,9.309
30.00,0.000,0.000,9.868
30.01,0.000,0.000,10.206
30.02,0.000,0.000,10.539
30.03,0.000,0.000,10.862
30.04,0.000,0.000,11.172
30.05,0.000,0.000,11.464
30.06,0.000,0.000,11.735
30.07,0.000,0.000,11.982
30.08,0.000,0.000,12.200
30.09,0.000,0.000,12.388
30.10,0.000,0.000,12.543
30.11,0.000,0.000,12.662
30.12,0.000,0.000,12.745
30.13,0.000,0.000,12.791
30.14,0.000,0.000,12.798
30.15,0.000,0.000,12.767
30.16,0.000,0.000,12.698
30.17,0.000,0.000,12.592
30.18,0.000,0.000,12.450
30.19,0.000,0.000,12.275
30.20,0.000,0.000,12.068
30.21,0.000,0.000,11.832
30.22,0.000,0.000,11.569
30.23,0.000,0.000,11.285
30.24,0.000,0.000,10.981
30.25,0.000,0.000,10.662
30.26,0.000,0.000,10.333
30.27,0.000,0.000,9.996
30.28,0.000,0.000,9.657
30.29,0.000,0.000,9.320
30.30,0.000,0.000,8.988
30.31,0.000,0.000,8.668
30.32,0.000,0.000,8.361
30.33,0.000,0.000,8.073
30.34,0.000,0.000,7.808
30.35,0.000,0.000,7.567
30.36,0.000,0.000,7.355
30.37,0.000,0.000,7.175
30.38,0.000,0.000,7.028
30.39,0.000,0.000,6.916
30.40,0.000,0.000,6.841
30.41,0.000,0.000,6.804
30.42,0.000,0.000,6.805
30.43,0.000,0.000,6.845
30.44,0.000,0.000,6.922
30.45,0.000,0.000,7.036
30.46,0.000,0.000,7.186
30.47,0.000,0.000,7.369
30.48,0.000,0.000,7.582
30.49,0.000,0.000,7.825
30.50,0.000,0.000,8.092
30.51,0.000,0.000,8.381
30.52,0.000,0.000,8.689
30.53,0.000,0.000,9.010
30.54,0.000,0.000,9.342
30.55,0.000,0.000,9.679
30.56,0.000,0.000,10.018
30.57,0.000,0.000,10.355
30.58,0.000,0.000,10.684
30.59,0.000,0.000,11.002
30.60,0.000,0.000,11.304
30.61,0.000,0.000,11.588
30.62,0.000,0.000,11.848
30.63,0.000,0.000,12.082
30.64,0.000,0.000,12.288
30.65,0.000,0.000,12.461
30.66,0.000,0.000,12.600
30.67,0.000,0.000,12.704
30.68,0.000,0.000,12.770
30.69,0.000,0.000,12.799
30.70,0.000,0.000,12.789
30.71,0.000,0.000,12.741
30.72,0.000,0.000,12.655
30.73,0.000,0.000,12.533
30.74,0.000,0.000,12.376
30.75,0.000,0.000,12.187
30.76,0.000,0.000,11.966
30.77,0.000,0.000,11.718
30.78,0.000,0.000,11.446
30.79,0.000,0.000,11.152
30.80,0.000,0.000,10.841
30.81,0.000,0.000,10.517
30.82,0.000,0.000,10.183
30.83,0.000,0.000,9.845
30.84,0.000,0.000,9.506
30.85,0.000,0.000,9.171
30.86,0.000,0.000,8.844
30.87,0.000,0.000,8.529
30.88,0.000,0.000,8.231
30.89,0.000,0.000,7.952
30.90,0.000,0.000,7.697
30.91,0.000,0.000,7.469
30.92,0.000,0.000,7.271
30.93,0.000,0.000,7.105
30.94,0.000,0.000,6.974
30.95,0.000,0.000,6.878
30.96,0.000,0.000,6.820
30.97,0.000,0.000,6.800
30.98,0.000,0.000,6.818
30.99,0.000,0.000,6.875
31.00,0.000,0.000,6.969
31.01,0.000,0.000,7.098
31.02,0.000,0.000,7.263
31.03,0.000,0.000,7.460
31.04,0.000,0.000,7.687
31.05,0.000,0.000,7.940
31.06,0.000,0.000,8.218
31.07,0.000,0.000,8.516
31.08,0.000,0.000,8.830
31.09,0.000,0.000,9.157
31.10,0.000,0.000,9.491
31.11,0.000,0.000,9.830
31.12,0.000,0.000,10.169
31.13,0.000,0.000,10.502
31.14,0.000,0.000,10.827
31.15,0.000,0.000,11.138
31.16,0.000,0.000,11.433
31.17,0.000,0.000,11.706
31.18,0.000,0.000,11.956
31.19,0.000,0.000,12.177
31.20,0.000,0.000,12.369
31.21,0.000,0.000,12.527
31.22,0.000,0.000,12.651
31.23,0.000,0.000,12.738
31.24,0.000,0.000,12.788
31.25,0.000,0.000,12.799
31.26,0.000,0.000,12.772
31.27,0.000,0.000,12.708
31.28,0.000,0.000,12.606
31.29,0.000,0.000,12.468
31.30,0.000,0.000,12.296
31.31,0.000,0.000,12.092
31.32,0.000,0.000,11.859
31.33,0.000,0.000,11.600
31.34,0.000,0.000,11.317
31.35,0.000,0.000,11.016
31.36,0.000,0.000,10.698
31.37,0.000,0.000,10.370
31.38,0.000,0.000,10.033
31.39,0.000,0.000,9.694
31.40,0.000,0.000,9.357
31.41,0.000,0.000,9.025
31.42,0.000,0.000,8.703
31.43,0.000,0.000,8.395
31.44,0.000,0.000,8.104
31.45,0.000,0.000,7.836
31.46,0.000,0.000,7.593
31.47,0.000,0.000,7.377
31.48,0.000,0.000,7.193
31.49,0.000,0.000,7.042
31.50,0.000,0.000,6.927
31.51,0.000,0.000,6.848
31.52,0.000,0.000,6.806
31.53,0.000,0.000,6.803
31.54,0.000,0.000,6.839
31.55,0.000,0.000,6.912
31.56,0.000,0.000,7.022
31.57,0.000,0.000,7.167
31.58,0.000,0.000,7.347
31.59,0.000,0.000,7.557
31.60,0.000,0.000,7.796
31.61,0.000,0.000,8.061
31.62,0.000,0.000,8.348
31.63,0.000,0.000,8.654
31.64,0.000,0.000,8.974
31.65,0.000,0.000,9.305
31.66,0.000,0.000,9.642
31.67,0.000,0.000,9.981
31.68,0.000,0.000,10.318
31.69,0.000,0.000,10.648
31.70,0.000,0.000,10.967
31.71,0.000,0.000,11.272
31.72,0.000,0.000,11.557
31.73,0.000,0.000,11.820
31.74,0.000,0.000,12.058
31.75,0.000,0.000,12.266
31.76,0.000,0.000,12.443
31.77,0.000,0.000,12.587
31.78,0.000,0.000,12.694
31.79,0.000,0.000,12.765
31.80,0.000,0.000,12.798
31.81,0.000,0.000,12.792
31.82,0.000,0.000,12.748
31.83,0.000,0.000,12.667
31.84,0.000,0.000,12.549
31.85,0.000,0.000,12.396
31.86,0.000,0.000,12.209
31.87,0.000,0.000,11.992
31.88,0.000,0.000,11.747
31.89,0.000,0.000,11.477
31.90,0.000,0.000,11.185
31.91,0.000,0.000,10.876
31.92,0.000,0.000,10.553
31.93,0.000,0.000,10.221
31.94,0.000,0.000,9.883
31.95,0.000,0.000,9.544
31.96,0.000,0.000,9.208
31.97,0.000,0.000,8.880
31.98,0.000,0.000,8.564
31.99,0.000,0.000,8.263
32.00,0.000,0.000,7.982
32.01,0.000,0.000,7.724
32.02,0.000,0.000,7.493
32.03,0.000,0.000,7.292
32.04,0.000,0.000,7.122
32.05,0.000,0.000,6.986
32.06,0.000,0.000,6.887
32.07,0.000,0.000,6.825
32.08,0.000,0.000,6.800
32.09,0.000,0.000,6.814
32.10,0.000,0.000,6.867
32.11,0.000,0.000,6.956
32.12,0.000,0.000,7.082
32.13,0.000,0.000,7.243
32.14,0.000,0.000,7.436
32.15,0.000,0.000,7.660
32.16,0.000,0.000,7.911
32.17,0.000,0.000,8.186
32.18,0.000,0.000,8.482
32.19,0.000,0.000,8.794
32.20,0.000,0.000,9.120
32.21,0.000,0.000,9.454
32.22,0.000,0.000,9.792
32.23,0.000,0.000,10.131
32.24,0.000,0.000,10.465
32.25,0.000,0.000,10.791
32.26,0.000,0.000,11.105
32.27,0.000,0.000,11.401
32.28,0.000,0.000,11.677
32.29,0.000,0.000,11.929
32.30,0.000,0.000,12.154
32.31,0.000,0.000,12.349
32.32,0.000,0.000,12.511
32.33,0.000,0.000,12.639
32.34,0.000,0.000,12.730
32.35,0.000,0.000,12.784
32.36,0.000,0.000,12.800
32.37,0.000,0.000,12.777
32.38,0.000,0.000,12.717
32.39,0.000,0.000,12.619
32.40,0.000,0.000,12.485
32.41,0.000,0.000,12.317
32.42,0.000,0.000,12.116
32.43,0.000,0.000,11.886
32.44,0.000,0.000,11.630
32.45,0.000,0.000,11.350
32.46,0.000,0.000,11.050
32.47,0.000,0.000,10.734
32.48,0.000,0.000,10.407
32.49,0.000,0.000,10.071
32.50,0.000,0.000,9.732
32.51,0.000,0.000,9.394
32.52,0.000,0.000,9.061
32.53,0.000,0.000,8.738
32.54,0.000,0.000,8.428
32.55,0.000,0.000,8.136
32.56,0.000,0.000,7.865
32.57,0.000,0.000,7.618
32.58,0.000,0.000,7.400
32.59,0.000,0.000,7.212
32.60,0.000,0.000,7.057
32.61,0.000,0.000,6.938
32.62,0.000,0.000,6.855
32.63,0.000,0.000,6.809
32.64,0.000,0.000,6.802
32.65,0.000,0.000,6.833
32.66,0.000,0.000,6.902
32.67,0.000,0.000,7.008
32.68,0.000,0.000,7.150
32.69,0.000,0.000,7.325
32.70,0.000,0.000,7.532
32.71,0.000,0.000,7.768
32.72,0.000,0.000,8.031
32.73,0.000,0.000,8.315
32.74,0.000,0.000,8.619
32.75,0.000,0.000,8.938
32.76,0.000,0.000,9.268
32.77,0.000,0.000,9.604
32.78,0.000,0.000,9.943
32.79,0.000,0.000,10.280
32.80,0.000,0.000,10.612
32.81,0.000,0.000,10.932
32.82,0.000,0.000,11.239
32.83,0.000,0.000,11.527
32.84,0.000,0.000,11.792
32.85,0.000,0.000,12.033
32.86,0.000,0.000,12.245
32.87,0.000,0.000,12.425
32.88,0.000,0.000,12.572
32.89,0.000,0.000,12.684
32.90,0.000,0.000,12.759
32.91,0.000,0.000,12.796
32.92,0.000,0.000,12.795
32.93,0.000,0.000,12.755
32.94,0.000,0.000,12.678
32.95,0.000,0.000,12.564
32.96,0.000,0.000,12.414
32.97,0.000,0.000,12.231
32.98,0.000,0.000,12.018
32.99,0.000,0.000,11.775
33.00,0.000,0.000,11.508
33.01,0.000,0.000,11.219
33.02,0.000,0.000,10.911
33.03,0.000,0.000,10.590
33.04,0.000,0.000,10.258
33.05,0.000,0.000,9.921
33.06,0.000,0.000,9.582
33.07,0.000,0.000,9.245
33.08,0.000,0.000,8.916
33.09,0.000,0.000,8.598
33.10,0.000,0.000,8.296
33.11,0.000,0.000,8.012
33.12,0.000,0.000,7.752
33.13,0.000,0.000,7.518
33.14,0.000,0.000,7.312
33.15,0.000,0.000,7.139
33.16,0.000,0.000,7.000
33.17,0.000,0.000,6.896
33.18,0.000,0.000,6.830
33.19,0.000,0.000,6.801
33.20,0.000,0.000,6.811
33.21,0.000,0.000,6.859
33.22,0.000,0.000,6.945
33.23,0.000,0.000,7.067
33.24,0.000,0.000,7.224
33.25,0.000,0.000,7.413
33.26,0.000,0.000,7.634
33.27,0.000,0.000,7.882
33.28,0.000,0.000,8.155
33.29,0.000,0.000,8.448
33.30,0.000,0.000,8.759
33.31,0.000,0.000,9.083
33.32,0.000,0.000,9.416
33.33,0.000,0.000,9.755
33.34,0.000,0.000,10.094
33.35,0.000,0.000,10.429
33.36,0.000,0.000,10.756
33.37,0.000,0.000,11.071
33.38,0.000,0.000,11.369
33.39,0.000,0.000,11.648
33.40,0.000,0.000,11.903
33.41,0.000,0.000,12.131
33.42,0.000,0.000,12.329
33.43,0.000,0.000,12.495
33.44,0.000,0.000,12.626
33.45,0.000,0.000,12.722
33.46,0.000,0.000,12.780
33.47,0.000,0.000,12.800
33.48,0.000,0.000,12.782
33.49,0.000,0.000,12.725
33.50,0.000,0.000,12.631
33.51,0.000,0.000,12.501
33.52,0.000,0.000,12.337
33.53,0.000,0.000,12.140
33.54,0.000,0.000,11.913
33.55,0.000,0.000,11.660
33.56,0.000,0.000,11.382
33.57,0.000,0.000,11.084
33.58,0.000,0.000,10.770
33.59,0.000,0.000,10.443
33.60,0.000,0.000,10.109
33.61,0.000,0.000,9.770
33.62,0.000,0.000,9.431
33.63,0.000,0.000,9.098
33.64,0.000,0.000,8.773
33.65,0.000,0.000,8.462
33.66,0.000,0.000,8.167
33.67,0.000,0.000,7.894
33.68,0.000,0.000,7.644
33.69,0.000,0.000,7.423
33.70,0.000,0.000,7.231
33.71,0.000,0.000,7.073
33.72,0.000,0.000,6.949
33.73,0.000,0.000,6.862
33.74,0.000,0.000,6.812
33.75,0.000,0.000,6.801
33.76,0.000,0.000,6.828
33.77,0.000,0.000,6.892
33.78,0.000,0.000,6.994
33.79,0.000,0.000,7.132
33.80,0.000,0.000,7.304
33.81,0.000,0.000,7.508
33.82,0.000,0.000,7.741
33.83,0.000,0.000,8.000
33.84,0.000,0.000,8.283
33.85,0.000,0.000,8.584
33.86,0.000,0.000,8.902
33.87,0.000,0.000,9.231
33.88,0.000,0.000,9.567
33.89,0.000,0.000,9.905
33.90,0.000,0.000,10.243
33.91,0.000,0.000,10.575
33.92,0.000,0.000,10.897
33.93,0.000,0.000,11.205
33.94,0.000,0.000,11.496
33.95,0.000,0.000,11.764
33.96,0.000,0.000,12.007
33.97,0.000,0.000,12.223
33.98,0.000,0.000,12.407
33.99,0.000,0.000,12.558
34.00,0.000,0.000,12.673
34.01,0.000,0.000,12.752
34.02,0.000,0.000,12.794
34.03,0.000,0.000,12.797
34.04,0.000,0.000,12.761
34.05,0.000,0.000,12.688
34.06,0.000,0.000,12.578
34.07,0.000,0.000,12.433
34.08,0.000,0.000,12.253
34.09,0.000,0.000,12.043
34.10,0.000,0.000,11.804
34.11,0.000,0.000,11.539
34.12,0.000,0.000,11.252
34.13,0.000,0.000,10.946
34.14,0.000,0.000,10.626
34.15,0.000,0.000,10.295
34.16,0.000,0.000,9.958
34.17,0.000,0.000,9.619
34.18,0.000,0.000,9.282
34.19,0.000,0.000,8.952
34.20,0.000,0.000,8.633
34.21,0.000,0.000,8.328
34.22,0.000,0.000,8.043
34.23,0.000,0.000,7.780
34.24,0.000,0.000,7.542
34.25,0.000,0.000,7.334
34.26,0.000,0.000,7.157
34.27,0.000,0.000,7.013
34.28,0.000,0.000,6.906
34.29,0.000,0.000,6.835
34.30,0.000,0.000,6.802
34.31,0.000,0.000,6.808
34.32,0.000,0.000,6.852
34.33,0.000,0.000,6.933
34.34,0.000,0.000,7.051
34.35,0.000,0.000,7.204
34.36,0.000,0.000,7.391
34.37,0.000,0.000,7.608
34.38,0.000,0.000,7.853
34.39,0.000,0.000,8.123
34.40,0.000,0.000,8.415
34.41,0.000,0.000,8.724
34.42,0.000,0.000,9.047
34.43,0.000,0.000,9.379
34.44,0.000,0.000,9.717
34.45,0.000,0.000,10.056
34.46,0.000,0.000,10.392
34.47,0.000,0.000,10.720
34.48,0.000,0.000,11.036
34.49,0.000,0.000,11.337
34.50,0.000,0.000,11.618
34.51,0.000,0.000,11.876
34.52,0.000,0.000,12.107
34.53,0.000,0.000,12.308
34.54,0.000,0.000,12.478
34.55,0.000,0.000,12.614
34.56,0.000,0.000,12.713
34.57,0.000,0.000,12.775
34.58,0.000,0.000,12.800
34.59,0.000,0.000,12.786
34.60,0.000,0.000,12.733
34.61,0.000,0.000,12.644
34.62,0.000,0.000,12.518
34.63,0.000,0.000,12.357
34.64,0.000,0.000,12.164
34.65,0.000,0.000,11.940
34.66,0.000,0.000,11.689
34.67,0.000,0.000,11.414
34.68,0.000,0.000,11.118
34.69,0.000,0.000,10.806
34.70,0.000,0.000,10.480
34.71,0.000,0.000,10.146
34.72,0.000,0.000,9.808
34.73,0.000,0.000,9.469
34.74,0.000,0.000,9.135
34.75,0.000,0.000,8.809
34.76,0.000,0.000,8.495
34.77,0.000,0.000,8.199
34.78,0.000,0.000,7.923
34.79,0.000,0.000,7.671
34.80,0.000,0.000,7.446
34.81,0.000,0.000,7.251
34.82,0.000,0.000,7.089
34.83,0.000,0.000,6.961
34.84,0.000,0.000,6.870
34.85,0.000,0.000,6.816
34.86,0.000,0.000,6.800
34.87,0.000,0.000,6.823
34.88,0.000,0.000,6.883
34.89,0.000,0.000,6.981
34.90,0.000,0.000,7.115
34.91,0.000,0.000,7.283
34.92,0.000,0.000,7.484
34.93,0.000,0.000,7.714
34.94,0.000,0.000,7.970
34.95,0.000,0.000,8.250
34.96,0.000,0.000,8.550
34.97,0.000,0.000,8.866
34.98,0.000,0.000,9.193
34.99,0.000,0.000,9.529
35.00,0.000,0.000,9.868
35.01,0.000,0.000,10.206
35.02,0.000,0.000,10.539
35.03,0.000,0.000,10.862
35.04,0.000,0.000,11.172
35.05,0.000,0.000,11.464
35.06,0.000,0.000,11.735
35.07,0.000,0.000,11.982
35.08,0.000,0.000,12.200
35.09,0.000,0.000,12.388
35.10,0.000,0.000,12.543
35.11,0.000,0.000,12.662
35.12,0.000,0.000,12.745
35.13,0.000,0.000,12.791
35.14,0.000,0.000,12.798
35.15,0.000,0.000,12.767
35.16,0.000,0.000,12.698
35.17,0.000,0.000,12.592
35.18,0.000,0.000,12.450
35.19,0.000,0.000,12.275
35.20,0.000,0.000,12.068
35.21,0.000,0.000,11.832
35.22,0.000,0.000,11.569
35.23,0.000,0.000,11.285
35.24,0.000,0.000,10.981
35.25,0.000,0.000,10.662
35.26,0.000,0.000,10.332
35.27,0.000,0.000,9.996
35.28,0.000,0.000,9.657
35.29,0.000,0.000,9.320
35.30,0.000,0.000,8.988
35.31,0.000,0.000,8.668
35.32,0.000,0.000,8.361
35.33,0.000,0.000,8.073
35.34,0.000,0.000,7.808
35.35,0.000,0.000,7.567
35.36,0.000,0.000,7.355
35.37,0.000,0.000,7.175
35.38,0.000,0.000,7.028
35.39,0.000,0.000,6.916
35.40,0.000,0.000,6.841
35.41,0.000,0.000,6.804
35.42,0.000,0.000,6.805
35.43,0.000,0.000,6.845
35.44,0.000,0.000,6.922
35.45,0.000,0.000,7.036
35.46,0.000,0.000,7.186
35.47,0.000,0.000,7.369
35.48,0.000,0.000,7.582
35.49,0.000,0.000,7.825
35.50,0.000,0.000,8.092
35.51,0.000,0.000,8.381
35.52,0.000,0.000,8.689
35.53,0.000,0.000,9.010
35.54,0.000,0.000,9.342
35.55,0.000,0.000,9.679
35.56,0.000,0.000,10.018
35.57,0.000,0.000,10.355
35.58,0.000,0.000,10.684
35.59,0.000,0.000,11.002
35.60,0.000,0.000,11.304
35.61,0.000,0.000,11.588
35.62,0.000,0.000,11.848
35.63,0.000,0.000,12.082
35.64,0.000,0.000,12.288
35.65,0.000,0.000,12.461
35.66,0.000,0.000,12.600
35.67,0.000,0.000,12.704
35.68,0.000,0.000,12.770
35.69,0.000,0.000,12.799
35.70,0.000,0.000,12.789
35.71,0.000,0.000,12.741
35.72,0.000,0.000,12.655
35.73,0.000,0.000,12.533
35.74,0.000,0.000,12.376
35.75,0.000,0.000,12.187
35.76,0.000,0.000,11.966
35.77,0.000,0.000,11.718
35.78,0.000,0.000,11.445
35.79,0.000,0.000,11.152
35.80,0.000,0.000,10.841
35.81,0.000,0.000,10.517
35.82,0.000,0.000,10.184
35.83,0.000,0.000,9.845
35.84,0.000,0.000,9.506
35.85,0.000,0.000,9.171
35.86,0.000,0.000,8.844
35.87,0.000,0.000,8.529
35.88,0.000,0.000,8.231
35.89,0.000,0.000,7.952
35.90,0.000,0.000,7.697
35.91,0.000,0.000,7.469
35.92,0.000,0.000,7.271
35.93,0.000,0.000,7.105
35.94,0.000,0.000,6.974
35.95,0.000,0.000,6.878
35.96,0.000,0.000,6.820
35.97,0.000,0.000,6.800
35.98,0.000,0.000,6.818
35.99,0.000,0.000,6.875
36.00,0.000,0.000,6.969
36.01,0.000,0.000,7.099
36.02,0.000,0.000,7.263
36.03,0.000,0.000,7.460
36.04,0.000,0.000,7.687
36.05,0.000,0.000,7.940
36.06,0.000,0.000,8.218
36.07,0.000,0.000,8.516
36.08,0.000,0.000,8.830
36.09,0.000,0.000,9.157
36.10,0.000,0.000,9.491
36.11,0.000,0.000,9.830
36.12,0.000,0.000,10.169
36.13,0.000,0.000,10.502
36.14,0.000,0.000,10.827
36.15,0.000,0.000,11.138
36.16,0.000,0.000,11.433
36.17,0.000,0.000,11.706
36.18,0.000,0.000,11.956
36.19,0.000,0.000,12.177
36.20,0.000,0.000,12.369
36.21,0.000,0.000,12.527
36.22,0.000,0.000,12.651
36.23,0.000,0.000,12.738
36.24,0.000,0.000,12.788
36.25,0.000,0.000,12.799
36.26,0.000,0.000,12.772
36.27,0.000,0.000,12.708
36.28,0.000,0.000,12.606
36.29,0.000,0.000,12.468
36.30,0.000,0.000,12.296
36.31,0.000,0.000,12.092
36.32,0.000,0.000,11.859
36.33,0.000,0.000,11.600
36.34,0.000,0.000,11.317
36.35,0.000,0.000,11.016
36.36,0.000,0.000,10.698
36.37,0.000,0.000,10.369
36.38,0.000,0.000,10.033
36.39,0.000,0.000,9.695
36.40,0.000,0.000,9.357
36.41,0.000,0.000,9.025
36.42,0.000,0.000,8.703
36.43,0.000,0.000,8.395
36.44,0.000,0.000,8.104
36.45,0.000,0.000,7.836
36.46,0.000,0.000,7.593
36.47,0.000,0.000,7.377
36.48,0.000,0.000,7.193
36.49,0.000,0.000,7.042
36.50,0.000,0.000,6.927
36.51,0.000,0.000,6.848
36.52,0.000,0.000,6.806
36.53,0.000,0.000,6.803
36.54,0.000,0.000,6.839
36.55,0.000,0.000,6.912
36.56,0.000,0.000,7.022
36.57,0.000,0.000,7.167
36.58,0.000,0.000,7.347
36.59,0.000,0.000,7.557
36.60,0.000,0.000,7.796
36.61,0.000,0.000,8.061
36.62,0.000,0.000,8.348
36.63,0.000,0.000,8.654
36.64,0.000,0.000,8.974
36.65,0.000,0.000,9.305
36.66,0.000,0.000,9.642
36.67,0.000,0.000,9.981
36.68,0.000,0.000,10.318
36.69,0.000,0.000,10.648
36.70,0.000,0.000,10.967
36.71,0.000,0.000,11.272
36.72,0.000,0.000,11.557
36.73,0.000,0.000,11.820
36.74,0.000,0.000,12.058
36.75,0.000,0.000,12.266
36.76,0.000,0.000,12.443
36.77,0.000,0.000,12.587
36.78,0.000,0.000,12.694
36.79,0.000,0.000,12.765
36.80,0.000,0.000,12.798
36.81,0.000,0.000,12.792
36.82,0.000,0.000,12.748
36.83,0.000,0.000,12.667
36.84,0.000,0.000,12.549
36.85,0.000,0.000,12.396
36.86,0.000,0.000,12.209
36.87,0.000,0.000,11.992
36.88,0.000,0.000,11.747
36.89,0.000,0.000,11.477
36.90,0.000,0.000,11.185
36.91,0.000,0.000,10.876
36.92,0.000,0.000,10.553
36.93,0.000,0.000,10.221
36.94,0.000,0.000,9.883
36.95,0.000,0.000,9.544
36.96,0.000,0.000,9.208
36.97,0.000,0.000,8.880
36.98,0.000,0.000,8.564
36.99,0.000,0.000,8.263
37.00,0.000,0.000,7.982
37.01,0.000,0.000,7.724
37.02,0.000,0.000,7.493
37.03,0.000,0.000,7.292
37.04,0.000,0.000,7.122
37.05,0.000,0.000,6.986
37.06,0.000,0.000,6.887
37.07,0.000,0.000,6.825
37.08,0.000,0.000,6.800
37.09,0.000,0.000,6.814
37.10,0.000,0.000,6.867
37.11,0.000,0.000,6.956
37.12,0.000,0.000,7.082
37.13,0.000,0.000,7.243
37.14,0.000,0.000,7.436
37.15,0.000,0.000,7.660
37.16,0.000,0.000,7.911
37.17,0.000,0.000,8.186
37.18,0.000,0.000,8.482
37.19,0.000,0.000,8.794
37.20,0.000,0.000,9.120
37.21,0.000,0.000,9.454
37.22,0.000,0.000,9.792
37.23,0.000,0.000,10.131
37.24,0.000,0.000,10.465
37.25,0.000,0.000,10.791
37.26,0.000,0.000,11.105
37.27,0.000,0.000,11.401
37.28,0.000,0.000,11.677
37.29,0.000,0.000,11.929
37.30,0.000,0.000,12.154
37.31,0.000,0.000,12.349
37.32,0.000,0.000,12.511
37.33,0.000,0.000,12.639
37.34,0.000,0.000,12.730
37.35,0.000,0.000,12.784
37.36,0.000,0.000,12.800
37.37,0.000,0.000,12.777
37.38,0.000,0.000,12.717
37.39,0.000,0.000,12.619
37.40,0.000,0.000,12.485
37.41,0.000,0.000,12.317
37.42,0.000,0.000,12.116
37.43,0.000,0.000,11.886
37.44,0.000,0.000,11.630
37.45,0.000,0.000,11.350
37.46,0.000,0.000,11.050
37.47,0.000,0.000,10.734
37.48,0.000,0.000,10.407
37.49,0.000,0.000,10.071
37.50,0.000,0.000,9.732
37.51,0.000,0.000,9.394
37.52,0.000,0.000,9.061
37.53,0.000,0.000,8.738
37.54,0.000,0.000,8.428
37.55,0.000,0.000,8.136
37.56,0.000,0.000,7.865
37.57,0.000,0.000,7.618
37.58,0.000,0.000,7.400
37.59,0.000,0.000,7.212
37.60,0.000,0.000,7.057
37.61,0.000,0.000,6.938
37.62,0.000,0.000,6.855
37.63,0.000,0.000,6.809
37.64,0.000,0.000,6.802
37.65,0.000,0.000,6.833
37.66,0.000,0.000,6.902
37.67,0.000,0.000,7.008
37.68,0.000,0.000,7.150
37.69,0.000,0.000,7.325
37.70,0.000,0.000,7.532
37.71,0.000,0.000,7.768
37.72,0.000,0.000,8.031
37.73,0.000,0.000,8.315
37.74,0.000,0.000,8.619
37.75,0.000,0.000,8.938
37.76,0.000,0.000,9.268
37.77,0.000,0.000,9.604
37.78,0.000,0.000,9.943
37.79,0.000,0.000,10.280
37.80,0.000,0.000,10.612
37.81,0.000,0.000,10.932
37.82,0.000,0.000,11.239
37.83,0.000,0.000,11.527
37.84,0.000,0.000,11.792
37.85,0.000,0.000,12.033
37.86,0.000,0.000,12.245
37.87,0.000,0.000,12.425
37.88,0.000,0.000,12.572
37.89,0.000,0.000,12.684
37.90,0.000,0.000,12.759
37.91,0.000,0.000,12.796
37.92,0.000,0.000,12.795
37.93,0.000,0.000,12.755
37.94,0.000,0.000,12.678
37.95,0.000,0.000,12.564
37.96,0.000,0.000,12.414
37.97,0.000,0.000,12.231
37.98,0.000,0.000,12.018
37.99,0.000,0.000,11.775
38.00,0.000,0.000,11.508
38.01,0.000,0.000,11.219
38.02,0.000,0.000,10.911
38.03,0.000,0.000,10.590
38.04,0.000,0.000,10.258
38.05,0.000,0.000,9.921
38.06,0.000,0.000,9.582
38.07,0.000,0.000,9.245
38.08,0.000,0.000,8.916
38.09,0.000,0.000,8.598
38.10,0.000,0.000,8.296
38.11,0.000,0.000,8.012
38.12,0.000,0.000,7.752
38.13,0.000,0.000,7.518
38.14,0.000,0.000,7.312
38.15,0.000,0.000,7.139
38.16,0.000,0.000,7.000
38.17,0.000,0.000,6.896
38.18,0.000,0.000,6.830
38.19,0.000,0.000,6.801
38.20,0.000,0.000,6.811
38.21,0.000,0.000,6.859
38.22,0.000,0.000,6.945
38.23,0.000,0.000,7.067
38.24,0.000,0.000,7.224
38.25,0.000,0.000,7.413
38.26,0.000,0.000,7.634
38.27,0.000,0.000,7.882
38.28,0.000,0.000,8.155
38.29,0.000,0.000,8.448
38.30,0.000,0.000,8.759
38.31,0.000,0.000,9.083
38.32,0.000,0.000,9.416
38.33,0.000,0.000,9.755
38.34,0.000,0.000,10.094
38.35,0.000,0.000,10.429
38.36,0.000,0.000,10.756
38.37,0.000,0.000,11.071
38.38,0.000,0.000,11.369
38.39,0.000,0.000,11.648
38.40,0.000,0.000,11.903
38.41,0.000,0.000,12.131
38.42,0.000,0.000,12.329
38.43,0.000,0.000,12.495
38.44,0.000,0.000,12.626
38.45,0.000,0.000,12.722
38.46,0.000,0.000,12.780
38.47,0.000,0.000,12.800
38.48,0.000,0.000,12.782
38.49,0.000,0.000,12.725
38.50,0.000,0.000,12.631
38.51,0.000,0.000,12.501
38.52,0.000,0.000,12.337
38.53,0.000,0.000,12.140
38.54,0.000,0.000,11.913
38.55,0.000,0.000,11.660
38.56,0.000,0.000,11.382
38.57,0.000,0.000,11.084
38.58,0.000,0.000,10.770
38.59,0.000,0.000,10.443
38.60,0.000,0.000,10.109
38.61,0.000,0.000,9.770
38.62,0.000,0.000,9.431
38.63,0.000,0.000,9.098
38.64,0.000,0.000,8.773
38.65,0.000,0.000,8.462
38.66,0.000,0.000,8.167
38.67,0.000,0.000,7.894
38.68,0.000,0.000,7.644
38.69,0.000,0.000,7.423
38.70,0.000,0.000,7.231
38.71,0.000,0.000,7.073
38.72,0.000,0.000,6.949
38.73,0.000,0.000,6.862
38.74,0.000,0.000,6.812
38.75,0.000,0.000,6.801
38.76,0.000,0.000,6.828
38.77,0.000,0.000,6.892
38.78,0.000,0.000,6.994
38.79,0.000,0.000,7.132
38.80,0.000,0.000,7.304
38.81,0.000,0.000,7.508
38.82,0.000,0.000,7.741
38.83,0.000,0.000,8.000
38.84,0.000,0.000,8.283
38.85,0.000,0.000,8.584
38.86,0.000,0.000,8.902
38.87,0.000,0.000,9.231
38.88,0.000,0.000,9.567
38.89,0.000,0.000,9.905
38.90,0.000,0.000,10.243
38.91,0.000,0.000,10.575
38.92,0.000,0.000,10.897
38.93,0.000,0.000,11.205
38.94,0.000,0.000,11.496
38.95,0.000,0.000,11.764
38.96,0.000,0.000,12.007
38.97,0.000,0.000,12.223
38.98,0.000,0.000,12.407
38.99,0.000,0.000,12.558
39.00,0.000,0.000,12.673
39.01,0.000,0.000,12.752
39.02,0.000,0.000,12.794
39.03,0.000,0.000,12.797
39.04,0.000,0.000,12.761
39.05,0.000,0.000,12.688
39.06,0.000,0.000,12.578
39.07,0.000,0.000,12.433
39.08,0.000,0.000,12.253
39.09,0.000,0.000,12.043
39.10,0.000,0.000,11.804
39.11,0.000,0.000,11.539
39.12,0.000,0.000,11.252
39.13,0.000,0.000,10.946
39.14,0.000,0.000,10.626
39.15,0.000,0.000,10.295
39.16,0.000,0.000,9.958
39.17,0.000,0.000,9.619
39.18,0.000,0.000,9.282
39.19,0.000,0.000,8.952
39.20,0.000,0.000,8.633
39.21,0.000,0.000,8.328
39.22,0.000,0.000,8.043
39.23,0.000,0.000,7.780
39.24,0.000,0.000,7.542
39.25,0.000,0.000,7.334
39.26,0.000,0.000,7.157
39.27,0.000,0.000,7.013
39.28,0.000,0.000,6.906
39.29,0.000,0.000,6.835
39.30,0.000,0.000,6.802
39.31,0.000,0.000,6.808
39.32,0.000,0.000,6.852
39.33,0.000,0.000,6.933
39.34,0.000,0.000,7.051
39.35,0.000,0.000,7.204
39.36,0.000,0.000,7.391
39.37,0.000,0.000,7.608
39.38,0.000,0.000,7.853
39.39,0.000,0.000,8.123
39.40,0.000,0.000,8.415
39.41,0.000,0.000,8.724
39.42,0.000,0.000,9.047
39.43,0.000,0.000,9.379
39.44,0.000,0.000,9.717
39.45,0.000,0.000,10.056
39.46,0.000,0.000,10.392
39.47,0.000,0.000,10.720
39.48,0.000,0.000,11.036
39.49,0.000,0.000,11.337
39.50,0.000,0.000,11.618
39.51,0.000,0.000,11.876
39.52,0.000,0.000,12.107
39.53,0.000,0.000,12.308
39.54,0.000,0.000,12.478
39.55,0.000,0.000,12.614
39.56,0.000,0.000,12.713
39.57,0.000,0.000,12.775
39.58,0.000,0.000,12.800
39.59,0.000,0.000,12.786
39.60,0.000,0.000,12.733
39.61,0.000,0.000,12.644
39.62,0.000,0.000,12.518
39.63,0.000,0.000,12.357
39.64,0.000,0.000,12.164
39.65,0.000,0.000,11.940
39.66,0.000,0.000,11.689
39.67,0.000,0.000,11.414
39.68,0.000,0.000,11.118
39.69,0.000,0.000,10.806
39.70,0.000,0.000,10.480
39.71,0.000,0.000,10.146
39.72,0.000,0.000,9.808
39.73,0.000,0.000,9.469
39.74,0.000,0.000,9.135
39.75,0.000,0.000,8.809
39.76,0.000,0.000,8.495
39.77,0.000,0.000,8.199
39.78,0.000,0.000,7.923
39.79,0.000,0.000,7.671
39.80,0.000,0.000,7.446
39.81,0.000,0.000,7.251
39.82,0.000,0.000,7.089
39.83,0.000,0.000,6.961
39.84,0.000,0.000,6.870
39.85,0.000,0.000,6.816
39.86,0.000,0.000,6.800
39.87,0.000,0.000,6.823
39.88,0.000,0.000,6.883
39.89,0.000,0.000,6.981
39.90,0.000,0.000,7.115
39.91,0.000,0.000,7.283
39.92,0.000,0.000,7.484
39.93,0.000,0.000,7.714
39.94,0.000,0.000,7.970
39.95,0.000,0.000,8.250
39.96,0.000,0.000,8.550
39.97,0.000,0.000,8.866
39.98,0.000,0.000,9.193
39.99,0.000,0.000,9.529
40.00,0.000,0.000,9.868
40.01,0.000,0.000,10.206
40.02,0.000,0.000,10.539
40.03,0.000,0.000,10.862
40.04,0.000,0.000,11.172
40.05,0.000,0.000,11.464
40.06,0.000,0.000,11.735
40.07,0.000,0.000,11.982
40.08,0.000,0.000,12.200
40.09,0.000,0.000,12.388
40.10,0.000,0.000,12.543
40.11,0.000,0.000,12.662
40.12,0.000,0.000,12.745
40.13,0.000,0.000,12.791
40.14,0.000,0.000,12.798
40.15,0.000,0.000,12.767
40.16,0.000,0.000,12.698
40.17,0.000,0.000,12.592
40.18,0.000,0.000,12.450
40.19,0.000,0.000,12.275
40.20,0.000,0.000,12.068
40.21,0.000,0.000,11.832
40.22,0.000,0.000,11.569
40.23,0.000,0.000,11.285
40.24,0.000,0.000,10.981
40.25,0.000,0.000,10.662
40.26,0.000,0.000,10.332
40.27,0.000,0.000,9.996
40.28,0.000,0.000,9.657
40.29,0.000,0.000,9.320
40.30,0.000,0.000,8.988
40.31,0.000,0.000,8.668
40.32,0.000,0.000,8.361
40.33,0.000,0.000,8.073
40.34,0.000,0.000,7.808
40.35,0.000,0.000,7.567
40.36,0.000,0.000,7.355
40.37,0.000,0.000,7.175
40.38,0.000,0.000,7.028
40.39,0.000,0.000,6.916
40.40,0.000,0.000,6.841
40.41,0.000,0.000,6.804
40.42,0.000,0.000,6.805
40.43,0.000,0.000,6.845
40.44,0.000,0.000,6.922
40.45,0.000,0.000,7.036
40.46,0.000,0.000,7.186
40.47,0.000,0.000,7.369
40.48,0.000,0.000,7.582
40.49,0.000,0.000,7.825
40.50,0.000,0.000,8.092
40.51,0.000,0.000,8.381
40.52,0.000,0.000,8.689
40.53,0.000,0.000,9.010
40.54,0.000,0.000,9.342
40.55,0.000,0.000,9.679
40.56,0.000,0.000,10.018
40.57,0.000,0.000,10.355
40.58,0.000,0.000,10.684
40.59,0.000,0.000,11.002
40.60,0.000,0.000,11.304
40.61,0.000,0.000,11.588
40.62,0.000,0.000,11.848
40.63,0.000,0.000,12.082
40.64,0.000,0.000,12.288
40.65,0.000,0.000,12.461
40.66,0.000,0.000,12.600
40.67,0.000,0.000,12.704
40.68,0.000,0.000,12.770
40.69,0.000,0.000,12.799
40.70,0.000,0.000,12.789
40.71,0.000,0.000,12.741
40.72,0.000,0.000,12.655
40.73,0.000,0.000,12.533
40.74,0.000,0.000,12.376
40.75,0.000,0.000,12.187
40.76,0.000,0.000,11.966
40.77,0.000,0.000,11.718
40.78,0.000,0.000,11.445
40.79,0.000,0.000,11.152
40.80,0.000,0.000,10.841
40.81,0.000,0.000,10.517
40.82,0.000,0.000,10.184
40.83,0.000,0.000,9.845
40.84,0.000,0.000,9.506
40.85,0.000,0.000,9.171
40.86,0.000,0.000,8.844
40.87,0.000,0.000,8.529
40.88,0.000,0.000,8.231
40.89,0.000,0.000,7.952
40.90,0.000,0.000,7.697
40.91,0.000,0.000,7.469
40.92,0.000,0.000,7.271
40.93,0.000,0.000,7.105
40.94,0.000,0.000,6.974
40.95,0.000,0.000,6.878
40.96,0.000,0.000,6.820
40.97,0.000,0.000,6.800
40.98,0.000,0.000,6.818
40.99,0.000,0.000,6.875
41.00,0.000,0.000,6.969
41.01,0.000,0.000,7.099
41.02,0.000,0.000,7.263
41.03,0.000,0.000,7.460
41.04,0.000,0.000,7.687
41.05,0.000,0.000,7.940
41.06,0.000,0.000,8.218
41.07,0.000,0.000,8.516
41.08,0.000,0.000,8.830
41.09,0.000,0.000,9.157
41.10,0.000,0.000,9.491
41.11,0.000,0.000,9.830
41.12,0.000,0.000,10.169
41.13,0.000,0.000,10.502
41.14,0.000,0.000,10.827
41.15,0.000,0.000,11.138
41.16,0.000,0.000,11.433
41.17,0.000,0.000,11.706
41.18,0.000,0.000,11.956
41.19,0.000,0.000,12.177
41.20,0.000,0.000,12.369
41.21,0.000,0.000,12.527
41.22,0.000,0.000,12.651
41.23,0.000,0.000,12.738
41.24,0.000,0.000,12.788
41.25,0.000,0.000,12.799
41.26,0.000,0.000,12.772
41.27,0.000,0.000,12.708
41.28,0.000,0.000,12.606
41.29,0.000,0.000,12.468
41.30,0.000,0.000,12.296
41.31,0.000,0.000,12.092
41.32,0.000,0.000,11.859
41.33,0.000,0.000,11.600
41.34,0.000,0.000,11.317
41.35,0.000,0.000,11.016
41.36,0.000,0.000,10.698
41.37,0.000,0.000,10.369
41.38,0.000,0.000,10.033
41.39,0.000,0.000,9.695
41.40,0.000,0.000,9.357
41.41,0.000,0.000,9.025
41.42,0.000,0.000,8.703
41.43,0.000,0.000,8.395
41.44,0.000,0.000,8.104
41.45,0.000,0.000,7.836
41.46,0.000,0.000,7.593
41.47,0.000,0.000,7.377
41.48,0.000,0.000,7.193
41.49,0.000,0.000,7.042
41.50,0.000,0.000,6.927
41.51,0.000,0.000,6.848
41.52,0.000,0.000,6.806
41.53,0.000,0.000,6.803
41.54,0.000,0.000,6.839
41.55,0.000,0.000,6.912
41.56,0.000,0.000,7.022
41.57,0.000,0.000,7.167
41.58,0.000,0.000,7.347
41.59,0.000,0.000,7.557
41.60,0.000,0.000,7.796
41.61,0.000,0.000,8.061
41.62,0.000,0.000,8.348
41.63,0.000,0.000,8.654
41.64,0.000,0.000,8.974
41.65,0.000,0.000,9.305
41.66,0.000,0.000,9.642
41.67,0.000,0.000,9.981
41.68,0.000,0.000,10.318
41.69,0.000,0.000,10.648
41.70,0.000,0.000,10.967
41.71,0.000,0.000,11.272
41.72,0.000,0.000,11.557
41.73,0.000,0.000,11.820
41.74,0.000,0.000,12.058
41.75,0.000,0.000,12.266
41.76,0.000,0.000,12.443
41.77,0.000,0.000,12.587
41.78,0.000,0.000,12.694
41.79,0.000,0.000,12.765
41.80,0.000,0.000,12.798
41.81,0.000,0.000,12.792
41.82,0.000,0.000,12.748
41.83,0.000,0.000,12.667
41.84,0.000,0.000,12.549
41.85,0.000,0.000,12.396
41.86,0.000,0.000,12.209
41.87,0.000,0.000,11.992
41.88,0.000,0.000,11.747
41.89,0.000,0.000,11.477
41.90,0.000,0.000,11.185
41.91,0.000,0.000,10.876
41.92,0.000,0.000,10.553
41.93,0.000,0.000,10.221
41.94,0.000,0.000,9.883
41.95,0.000,0.000,9.544
41.96,0.000,0.000,9.208
41.97,0.000,0.000,8.880
41.98,0.000,0.000,8.564
41.99,0.000,0.000,8.263
42.00,0.000,0.000,7.982
42.01,0.000,0.000,7.724
42.02,0.000,0.000,7.493
42.03,0.000,0.000,7.292
42.04,0.000,0.000,7.122
42.05,0.000,0.000,6.986
42.06,0.000,0.000,6.887
42.07,0.000,0.000,6.825
42.08,0.000,0.000,6.800
42.09,0.000,0.000,6.814
42.10,0.000,0.000,6.867
42.11,0.000,0.000,6.956
42.12,0.000,0.000,7.082
42.13,0.000,0.000,7.243
42.14,0.000,0.000,7.436
42.15,0.000,0.000,7.660
42.16,0.000,0.000,7.911
42.17,0.000,0.000,8.186
42.18,0.000,0.000,8.482
42.19,0.000,0.000,8.794
42.20,0.000,0.000,9.120
42.21,0.000,0.000,9.454
42.22,0.000,0.000,9.792
42.23,0.000,0.000,10.131
42.24,0.000,0.000,10.465
42.25,0.000,0.000,10.791
42.26,0.000,0.000,11.105
42.27,0.000,0.000,11.401
42.28,0.000,0.000,11.677
42.29,0.000,0.000,11.929
42.30,0.000,0.000,12.154
42.31,0.000,0.000,12.349
42.32,0.000,0.000,12.511
42.33,0.000,0.000,12.639
42.34,0.000,0.000,12.730
42.35,0.000,0.000,12.784
42.36,0.000,0.000,12.800
42.37,0.000,0.000,12.777
42.38,0.000,0.000,12.717
42.39,0.000,0.000,12.619
42.40,0.000,0.000,12.485
42.41,0.000,0.000,12.317
42.42,0.000,0.000,12.116
42.43,0.000,0.000,11.886
42.44,0.000,0.000,11.630
42.45,0.000,0.000,11.350
42.46,0.000,0.000,11.050
42.47,0.000,0.000,10.734
42.48,0.000,0.000,10.407
42.49,0.000,0.000,10.071
42.50,0.000,0.000,9.732
42.51,0.000,0.000,9.394
42.52,0.000,0.000,9.061
42.53,0.000,0.000,8.738
42.54,0.000,0.000,8.428
42.55,0.000,0.000,8.136
42.56,0.000,0.000,7.865
42.57,0.000,0.000,7.618
42.58,0.000,0.000,7.400
42.59,0.000,0.000,7.212
42.60,0.000,0.000,7.057
42.61,0.000,0.000,6.938
42.62,0.000,0.000,6.855
42.63,0.000,0.000,6.809
42.64,0.000,0.000,6.802
42.65,0.000,0.000,6.833
42.66,0.000,0.000,6.902
42.67,0.000,0.000,7.008
42.68,0.000,0.000,7.150
42.69,0.000,0.000,7.325
42.70,0.000,0.000,7.532
42.71,0.000,0.000,7.768
42.72,0.000,0.000,8.031
42.73,0.000,0.000,8.315
42.74,0.000,0.000,8.619
42.75,0.000,0.000,8.938
42.76,0.000,0.000,9.268
42.77,0.000,0.000,9.604
42.78,0.000,0.000,9.943
42.79,0.000,0.000,10.280
42.80,0.000,0.000,10.612
42.81,0.000,0.000,10.932
42.82,0.000,0.000,11.239
42.83,0.000,0.000,11.527
42.84,0.000,0.000,11.792
42.85,0.000,0.000,12.033
42.86,0.000,0.000,12.245
42.87,0.000,0.000,12.425
42.88,0.000,0.000,12.572
42.89,0.000,0.000,12.684
42.90,0.000,0.000,12.759
42.91,0.000,0.000,12.796
42.92,0.000,0.000,12.795
42.93,0.000,0.000,12.755
42.94,0.000,0.000,12.678
42.95,0.000,0.000,12.564
42.96,0.000,0.000,12.414
42.97,0.000,0.000,12.231
42.98,0.000,0.000,12.018
42.99,0.000,0.000,11.775
43.00,0.000,0.000,11.508
43.01,0.000,0.000,11.219
43.02,0.000,0.000,10.911
43.03,0.000,0.000,10.590
43.04,0.000,0.000,10.258
43.05,0.000,0.000,9.921
43.06,0.000,0.000,9.582
43.07,0.000,0.000,9.245
43.08,0.000,0.000,8.916
43.09,0.000,0.000,8.598
43.10,0.000,0.000,8.296
43.11,0.000,0.000,8.012
43.12,0.000,0.000,7.752
43.13,0.000,0.000,7.518
43.14,0.000,0.000,7.312
43.15,0.000,0.000,7.139
43.16,0.000,0.000,7.000
43.17,0.000,0.000,6.896
43.18,0.000,0.000,6.830
43.19,0.000,0.000,6.801
43.20,0.000,0.000,6.811
43.21,0.000,0.000,6.859
43.22,0.000,0.000,6.945
43.23,0.000,0.000,7.067
43.24,0.000,0.000,7.224
43.25,0.000,0.000,7.413
43.26,0.000,0.000,7.634
43.27,0.000,0.000,7.882
43.28,0.000,0.000,8.155
43.29,0.000,0.000,8.448
43.30,0.000,0.000,8.759
43.31,0.000,0.000,9.083
43.32,0.000,0.000,9.416
43.33,0.000,0.000,9.755
43.34,0.000,0.000,10.094
43.35,0.000,0.000,10.429
43.36,0.000,0.000,10.756
43.37,0.000,0.000,11.071
43.38,0.000,0.000,11.369
43.39,0.000,0.000,11.648
43.40,0.000,0.000,11.903
43.41,0.000,0.000,12.131
43.42,0.000,0.000,12.329
43.43,0.000,0.000,12.495
43.44,0.000,0.000,12.626
43.45,0.000,0.000,12.722
43.46,0.000,0.000,12.780
43.47,0.000,0.000,12.800
43.48,0.000,0.000,12.782
43.49,0.000,0.000,12.725
43.50,0.000,0.000,12.631
43.51,0.000,0.000,12.501
43.52,0.000,0.000,12.337
43.53,0.000,0.000,12.140
43.54,0.000,0.000,11.913
43.55,0.000,0.000,11.660
43.56,0.000,0.000,11.382
43.57,0.000,0.000,11.084
43.58,0.000,0.000,10.770
43.59,0.000,0.000,10.443
43.60,0.000,0.000,10.109
43.61,0.000,0.000,9.770
43.62,0.000,0.000,9.431
43.63,0.000,0.000,9.098
43.64,0.000,0.000,8.773
43.65,0.000,0.000,8.462
43.66,0.000,0.000,8.167
43.67,0.000,0.000,7.894
43.68,0.000,0.000,7.644
43.69,0.000,0.000,7.423
43.70,0.000,0.000,7.231
43.71,0.000,0.000,7.073
43.72,0.000,0.000,6.949
43.73,0.000,0.000,6.862
43.74,0.000,0.000,6.812
43.75,0.000,0.000,6.801
43.76,0.000,0.000,6.828
43.77,0.000,0.000,6.892
43.78,0.000,0.000,6.994
43.79,0.000,0.000,7.132
43.80,0.000,0.000,7.304
43.81,0.000,0.000,7.508
43.82,0.000,0.000,7.741
43.83,0.000,0.000,8.000
43.84,0.000,0.000,8.283
43.85,0.000,0.000,8.584
43.86,0.000,0.000,8.902
43.87,0.000,0.000,9.231
43.88,0.000,0.000,9.567
43.89,0.000,0.000,9.905
43.90,0.000,0.000,10.243
43.91,0.000,0.000,10.575
43.92,0.000,0.000,10.897
43.93,0.000,0.000,11.205
43.94,0.000,0.000,11.496
43.95,0.000,0.000,11.764
43.96,0.000,0.000,12.007
43.97,0.000,0.000,12.223
43.98,0.000,0.000,12.407
43.99,0.000,0.000,12.558
44.00,0.000,0.000,12.673
44.01,0.000,0.000,12.752
44.02,0.000,0.000,12.794
44.03,0.000,0.000,12.797
44.04,0.000,0.000,12.761
44.05,0.000,0.000,12.688
44.06,0.000,0.000,12.578
44.07,0.000,0.000,12.433
44.08,0.000,0.000,12.253
44.09,0.000,0.000,12.043
44.10,0.000,0.000,11.804
44.11,0.000,0.000,11.539
44.12,0.000,0.000,11.252
44.13,0.000,0.000,10.946
44.14,0.000,0.000,10.626
44.15,0.000,0.000,10.295
44.16,0.000,0.000,9.958
44.17,0.000,0.000,9.619
44.18,0.000,0.000,9.282
44.19,0.000,0.000,8.952
44.20,0.000,0.000,8.633
44.21,0.000,0.000,8.328
44.22,0.000,0.000,8.043
44.23,0.000,0.000,7.780
44.24,0.000,0.000,7.542
44.25,0.000,0.000,7.334
44.26,0.000,0.000,7.157
44.27,0.000,0.000,7.013
44.28,0.000,0.000,6.906
44.29,0.000,0.000,6.835
44.30,0.000,0.000,6.802
44.31,0.000,0.000,6.808
44.32,0.000,0.000,6.852
44.33,0.000,0.000,6.933
44.34,0.000,0.000,7.051
44.35,0.000,0.000,7.204
44.36,0.000,0.000,7.391
44.37,0.000,0.000,7.608
44.38,0.000,0.000,7.853
44.39,0.000,0.000,8.123
44.40,0.000,0.000,8.415
44.41,0.000,0.000,8.724
44.42,0.000,0.000,9.047
44.43,0.000,0.000,9.379
44.44,0.000,0.000,9.717
44.45,0.000,0.000,10.056
44.46,0.000,0.000,10.392
44.47,0.000,0.000,10.720
44.48,0.000,0.000,11.036
44.49,0.000,0.000,11.337
44.50,0.000,0.000,11.618
44.51,0.000,0.000,11.876
44.52,0.000,0.000,12.107
44.53,0.000,0.000,12.308
44.54,0.000,0.000,12.478
44.55,0.000,0.000,12.614
44.56,0.000,0.000,12.713
44.57,0.000,0.000,12.775
44.58,0.000,0.000,12.800
44.59,0.000,0.000,12.786
44.60,0.000,0.000,12.733
44.61,0.000,0.000,12.644
44.62,0.000,0.000,12.518
44.63,0.000,0.000,12.357
44.64,0.000,0.000,12.164
44.65,0.000,0.000,11.940
44.66,0.000,0.000,11.689
44.67,0.000,0.000,11.414
44.68,0.000,0.000,11.118
44.69,0.000,0.000,10.806
44.70,0.000,0.000,10.480
44.71,0.000,0.000,10.146
44.72,0.000,0.000,9.808
44.73,0.000,0.000,9.469
44.74,0.000,0.000,9.135
44.75,0.000,0.000,8.809
44.76,0.000,0.000,8.495
44.77,0.000,0.000,8.199
44.78,0.000,0.000,7.923
44.79,0.000,0.000,7.671
44.80,0.000,0.000,7.446
44.81,0.000,0.000,7.251
44.82,0.000,0.000,7.089
44.83,0.000,0.000,6.961
44.84,0.000,0.000,6.870
44.85,0.000,0.000,6.816
44.86,0.000,0.000,6.800
44.87,0.000,0.000,6.823
44.88,0.000,0.000,6.883
44.89,0.000,0.000,6.981
44.90,0.000,0.000,7.115
44.91,0.000,0.000,7.283
44.92,0.000,0.000,7.484
44.93,0.000,0.000,7.714
44.94,0.000,0.000,7.970
44.95,0.000,0.000,8.250
44.96,0.000,0.000,8.550
44.97,0.000,0.000,8.866
44.98,0.000,0.000,9.193
44.99,0.000,0.000,9.529
45.00,0.000,0.000,9.868
45.01,0.000,0.000,10.206
45.02,0.000,0.000,10.539
45.03,0.000,0.000,10.862
45.04,0.000,0.000,11.172
45.05,0.000,0.000,11.464
45.06,0.000,0.000,11.735
45.07,0.000,0.000,11.982
45.08,0.000,0.000,12.200
45.09,0.000,0.000,12.388
45.10,0.000,0.000,12.543
45.11,0.000,0.000,12.662
45.12,0.000,0.000,12.745
45.13,0.000,0.000,12.791
45.14,0.000,0.000,12.798
45.15,0.000,0.000,12.767
45.16,0.000,0.000,12.698
45.17,0.000,0.000,12.592
45.18,0.000,0.000,12.450
45.19,0.000,0.000,12.275
45.20,0.000,0.000,12.068
45.21,0.000,0.000,11.832
45.22,0.000,0.000,11.569
45.23,0.000,0.000,11.285
45.24,0.000,0.000,10.981
45.25,0.000,0.000,10.662
45.26,0.000,0.000,10.332
45.27,0.000,0.000,9.996
45.28,0.000,0.000,9.657
45.29,0.000,0.000,9.320
45.30,0.000,0.000,8.988
45.31,0.000,0.000,8.668
45.32,0.000,0.000,8.361
45.33,0.000,0.000,8.073
45.34,0.000,0.000,7.808
45.35,0.000,0.000,7.567
45.36,0.000,0.000,7.355
45.37,0.000,0.000,7.175
45.38,0.000,0.000,7.028
45.39,0.000,0.000,6.916
45.40,0.000,0.000,6.841
45.41,0.000,0.000,6.804
45.42,0.000,0.000,6.805
45.43,0.000,0.000,6.845
45.44,0.000,0.000,6.922
45.45,0.000,0.000,7.036
45.46,0.000,0.000,7.186
45.47,0.000,0.000,7.369
45.48,0.000,0.000,7.582
45.49,0.000,0.000,7.825
45.50,0.000,0.000,8.092
45.51,0.000,0.000,8.381
45.52,0.000,0.000,8.689
45.53,0.000,0.000,9.010
45.54,0.000,0.000,9.342
45.55,0.000,0.000,9.679
45.56,0.000,0.000,10.018
45.57,0.000,0.000,10.355
45.58,0.000,0.000,10.684
45.59,0.000,0.000,11.002
45.60,0.000,0.000,11.304
45.61,0.000,0.000,11.588
45.62,0.000,0.000,11.848
45.63,0.000,0.000,12.082
45.64,0.000,0.000,12.288
45.65,0.000,0.000,12.461
45.66,0.000,0.000,12.600
45.67,0.000,0.000,12.704
45.68,0.000,0.000,12.770
45.69,0.000,0.000,12.799
45.70,0.000,0.000,12.789
45.71,0.000,0.000,12.741
45.72,0.000,0.000,12.655
45.73,0.000,0.000,12.533
45.74,0.000,0.000,12.376
45.75,0.000,0.000,12.187
45.76,0.000,0.000,11.966
45.77,0.000,0.000,11.718
45.78,0.000,0.000,11.445
45.79,0.000,0.000,11.152
45.80,0.000,0.000,10.841
45.81,0.000,0.000,10.517
45.82,0.000,0.000,10.184
45.83,0.000,0.000,9.845
45.84,0.000,0.000,9.506
45.85,0.000,0.000,9.171
45.86,0.000,0.000,8.844
45.87,0.000,0.000,8.529
45.88,0.000,0.000,8.231
45.89,0.000,0.000,7.952
45.90,0.000,0.000,7.697
45.91,0.000,0.000,7.469
45.92,0.000,0.000,7.271
45.93,0.000,0.000,7.105
45.94,0.000,0.000,6.974
45.95,0.000,0.000,6.878
45.96,0.000,0.000,6.820
45.97,0.000,0.000,6.800
45.98,0.000,0.000,6.818
45.99,0.000,0.000,6.875
46.00,0.000,0.000,6.969
46.01,0.000,0.000,7.099
46.02,0.000,0.000,7.263
46.03,0.000,0.000,7.460
46.04,0.000,0.000,7.687
46.05,0.000,0.000,7.940
46.06,0.000,0.000,8.218
46.07,0.000,0.000,8.516
46.08,0.000,0.000,8.830
46.09,0.000,0.000,9.157
46.10,0.000,0.000,9.491
46.11,0.000,0.000,9.830
46.12,0.000,0.000,10.169
46.13,0.000,0.000,10.502
46.14,0.000,0.000,10.827
46.15,0.000,0.000,11.138
46.16,0.000,0.000,11.433
46.17,0.000,0.000,11.706
46.18,0.000,0.000,11.956
46.19,0.000,0.000,12.177
46.20,0.000,0.000,12.369
46.21,0.000,0.000,12.527
46.22,0.000,0.000,12.651
46.23,0.000,0.000,12.738
46.24,0.000,0.000,12.788
46.25,0.000,0.000,12.799
46.26,0.000,0.000,12.772
46.27,0.000,0.000,12.708
46.28,0.000,0.000,12.606
46.29,0.000,0.000,12.468
46.30,0.000,0.000,12.296
46.31,0.000,0.000,12.092
46.32,0.000,0.000,11.859
46.33,0.000,0.000,11.600
46.34,0.000,0.000,11.317
46.35,0.000,0.000,11.016
46.36,0.000,0.000,10.698
46.37,0.000,0.000,10.369
46.38,0.000,0.000,10.033
46.39,0.000,0.000,9.695
46.40,0.000,0.000,9.357
46.41,0.000,0.000,9.025
46.42,0.000,0.000,8.703
46.43,0.000,0.000,8.395
46.44,0.000,0.000,8.104
46.45,0.000,0.000,7.836
46.46,0.000,0.000,7.593
46.47,0.000,0.000,7.377
46.48,0.000,0.000,7.193
46.49,0.000,0.000,7.042
46.50,0.000,0.000,6.927
46.51,0.000,0.000,6.848
46.52,0.000,0.000,6.806
46.53,0.000,0.000,6.803
46.54,0.000,0.000,6.839
46.55,0.000,0.000,6.912
46.56,0.000,0.000,7.022
46.57,0.000,0.000,7.167
46.58,0.000,0.000,7.347
46.59,0.000,0.000,7.557
46.60,0.000,0.000,7.796
46.61,0.000,0.000,8.061
46.62,0.000,0.000,8.348
46.63,0.000,0.000,8.654
46.64,0.000,0.000,8.974
46.65,0.000,0.000,9.305
46.66,0.000,0.000,9.642
46.67,0.000,0.000,9.981
46.68,0.000,0.000,10.318
46.69,0.000,0.000,10.648
46.70,0.000,0.000,10.967
46.71,0.000,0.000,11.272
46.72,0.000,0.000,11.557
46.73,0.000,0.000,11.820
46.74,0.000,0.000,12.058
46.75,0.000,0.000,12.266
46.76,0.000,0.000,12.443
46.77,0.000,0.000,12.587
46.78,0.000,0.000,12.694
46.79,0.000,0.000,12.765
46.80,0.000,0.000,12.798
46.81,0.000,0.000,12.792
46.82,0.000,0.000,12.748
46.83,0.000,0.000,12.667
46.84,0.000,0.000,12.549
46.85,0.000,0.000,12.396
46.86,0.000,0.000,12.209
46.87,0.000,0.000,11.992
46.88,0.000,0.000,11.747
46.89,0.000,0.000,11.477
46.90,0.000,0.000,11.185
46.91,0.000,0.000,10.876
46.92,0.000,0.000,10.553
46.93,0.000,0.000,10.221
46.94,0.000,0.000,9.883
46.95,0.000,0.000,9.544
46.96,0.000,0.000,9.208
46.97,0.000,0.000,8.880
46.98,0.000,0.000,8.564
46.99,0.000,0.000,8.263
47.00,0.000,0.000,7.982
47.01,0.000,0.000,7.724
47.02,0.000,0.000,7.493
47.03,0.000,0.000,7.292
47.04,0.000,0.000,7.122
47.05,0.000,0.000,6.986
47.06,0.000,0.000,6.887
47.07,0.000,0.000,6.825
47.08,0.000,0.000,6.800
47.09,0.000,0.000,6.814
47.10,0.000,0.000,6.867
47.11,0.000,0.000,6.956
47.12,0.000,0.000,7.082
47.13,0.000,0.000,7.243
47.14,0.000,0.000,7.436
47.15,0.000,0.000,7.660
47.16,0.000,0.000,7.911
47.17,0.000,0.000,8.186
47.18,0.000,0.000,8.482
47.19,0.000,0.000,8.794
47.20,0.000,0.000,9.120
47.21,0.000,0.000,9.454
47.22,0.000,0.000,9.792
47.23,0.000,0.000,10.131
47.24,0.000,0.000,10.465
47.25,0.000,0.000,10.791
47.26,0.000,0.000,11.105
47.27,0.000,0.000,11.401
47.28,0.000,0.000,11.677
47.29,0.000,0.000,11.929
47.30,0.000,0.000,12.154
47.31,0.000,0.000,12.349
47.32,0.000,0.000,12.511
47.33,0.000,0.000,12.639
47.34,0.000,0.000,12.730
47.35,0.000,0.000,12.784
47.36,0.000,0.000,12.800
47.37,0.000,0.000,12.777
47.38,0.000,0.000,12.717
47.39,0.000,0.000,12.619
47.40,0.000,0.000,12.485
47.41,0.000,0.000,12.317
47.42,0.000,0.000,12.116
47.43,0.000,0.000,11.886
47.44,0.000,0.000,11.630
47.45,0.000,0.000,11.350
47.46,0.000,0.000,11.050
47.47,0.000,0.000,10.734
47.48,0.000,0.000,10.407
47.49,0.000,0.000,10.071
47.50,0.000,0.000,9.732
47.51,0.000,0.000,9.394
47.52,0.000,0.000,9.061
47.53,0.000,0.000,8.738
47.54,0.000,0.000,8.428
47.55,0.000,0.000,8.136
47.56,0.000,0.000,7.865
47.57,0.000,0.000,7.618
47.58,0.000,0.000,7.400
47.59,0.000,0.000,7.212
47.60,0.000,0.000,7.057
47.61,0.000,0.000,6.938
47.62,0.000,0.000,6.855
47.63,0.000,0.000,6.809
47.64,0.000,0.000,6.802
47.65,0.000,0.000,6.833
47.66,0.000,0.000,6.902
47.67,0.000,0.000,7.008
47.68,0.000,0.000,7.150
47.69,0.000,0.000,7.325
47.70,0.000,0.000,7.532
47.71,0.000,0.000,7.768
47.72,0.000,0.000,8.031
47.73,0.000,0.000,8.315
47.74,0.000,0.000,8.619
47.75,0.000,0.000,8.938
47.76,0.000,0.000,9.268
47.77,0.000,0.000,9.604
47.78,0.000,0.000,9.943
47.79,0.000,0.000,10.280
47.80,0.000,0.000,10.612
47.81,0.000,0.000,10.932
47.82,0.000,0.000,11.239
47.83,0.000,0.000,11.527
47.84,0.000,0.000,11.792
47.85,0.000,0.000,12.033
47.86,0.000,0.000,12.245
47.87,0.000,0.000,12.425
47.88,0.000,0.000,12.572
47.89,0.000,0.000,12.684
47.90,0.000,0.000,12.759
47.91,0.000,0.000,12.796
47.92,0.000,0.000,12.795
47.93,0.000,0.000,12.755
47.94,0.000,0.000,12.678
47.95,0.000,0.000,12.564
47.96,0.000,0.000,12.414
47.97,0.000,0.000,12.231
47.98,0.000,0.000,12.018
47.99,0.000,0.000,11.775
